time,seconds_elapsed,z,y,x
1761237200938846000,0.111845947265625,-4.991420745849609,-2.0741076469421387,0.2461585998535156
1761237200957028400,0.1300283203125,-5.984493732452393,-2.4380202293396,0.3235281109809875
1761237200975064800,0.14806494140625,-6.597612380981445,-1.814697504043579,0.7337644100189209
1761237200993102800,0.166102783203125,-7.268034934997559,-2.2913055419921875,0.1076895222067833
1761237201011140400,0.184140380859375,-3.3276758193969727,-1.1236823797225952,-0.5018503069877625
1761237201029178000,0.20217822265625,-1.4606428146362305,0.1264727115631103,0.8976754546165466
1761237201047215600,0.220215576171875,-0.6512203216552734,-0.6478526592254639,3.1685056686401367
1761237201065254100,0.238254150390625,-0.1409635543823242,-2.474149227142334,1.9405608177185056
1761237201083291400,0.25629150390625,-0.1294422149658203,-2.183429479598999,1.6382312774658203
1761237201101329400,0.274329345703125,-1.7815818786621094,-0.9583091735839844,0.547836422920227
1761237201119366400,0.292366455078125,3.7446603775024414,0.7573742866516113,-1.3977863788604736
1761237201137405200,0.3104052734375,18.281753540039062,-0.316676378250122,-0.3761021494865417
1761237201155442700,0.328442626953125,26.965442657470703,-0.3054471015930176,2.575404167175293
1761237201173480000,0.34647998046875,26.25166130065918,2.268352508544922,5.372782230377197
1761237201191518200,0.364518310546875,22.643903732299805,5.231003284454346,7.224815845489502
1761237201209556200,0.38255615234375,16.59112548828125,7.496611595153809,5.834380626678467
1761237201227593000,0.400593017578125,10.339731216430664,8.407108306884766,4.303847312927246
1761237201245631500,0.418631591796875,5.542281150817871,9.08273696899414,1.5664840936660769
1761237201263668700,0.436668701171875,4.607445240020752,8.540033340454102,-2.845188856124878
1761237201281706500,0.45470654296875,3.419250965118408,5.311036109924316,-1.803751230239868
1761237201299744500,0.47274462890625,0.8916549682617188,2.7005615234375,-0.5220462679862976
1761237201317782000,0.490781982421875,-2.0246710777282715,0.4654641151428222,1.3770925998687744
1761237201335819800,0.50881982421875,-4.956978797912598,-2.289069652557373,3.1564536094665527
1761237201353854500,0.5268544921875,-5.445963382720947,-5.727049827575684,1.78052818775177
1761237201371895300,0.544895263671875,-4.792243003845215,-7.502870082855225,-0.8661392331123352
1761237201389932800,0.562932861328125,-5.134073734283447,-8.150890350341797,-2.3240694999694824
1761237201407970800,0.580970703125,-6.144751071929932,-7.573742866516113,-1.989474296569824
1761237201426008600,0.599008544921875,-7.430083274841309,-7.5762939453125,-1.350737452507019
1761237201444047600,0.617047607421875,-9.031765937805176,-7.36646556854248,-0.8671767711639404
1761237201462085000,0.635085205078125,-11.070910453796388,-7.401290893554687,-0.2071396708488464
1761237201480123100,0.653123046875,-13.066235542297363,-7.538491725921631,-0.3887974321842193
1761237201498160400,0.671160400390625,-14.338329315185549,-7.858622074127197,-0.6989791393280029
1761237201516194600,0.689194580078125,-13.505598068237305,-8.385427474975586,-1.0463452339172363
1761237201534236200,0.707236083984375,-10.188005447387695,-8.741806030273438,-1.797583818435669
1761237201552274400,0.7252744140625,-7.099942207336426,-8.946372985839844,-2.0386905670166016
1761237201570311700,0.743311767578125,-3.658289909362793,-8.03958511352539,-1.8318387269973757
1761237201588349400,0.761349365234375,-0.7994823455810547,-6.4459428787231445,-0.9717894792556764
1761237201606387700,0.7793876953125,-1.0808167457580566,-5.285322666168213,0.3198243379592895
1761237201624425200,0.79742529296875,-0.6675853729248047,-4.147942543029785,0.1068813800811767
1761237201642462700,0.815462646484375,-0.3688764572143554,-3.3816022872924805,0.006610631942749
1761237201660501000,0.8335009765625,0.239410400390625,-2.653110980987549,0.9498000144958496
1761237201678538500,0.85153857421875,0.2870216369628906,-2.203578472137451,1.4410815238952637
1761237201696576300,0.869576171875,-1.1274514198303225,-1.753556251525879,0.77146315574646
1761237201714613200,0.88761328125,-4.000570774078369,-1.1364197731018066,0.0621869564056396
1761237201732651800,0.90565185546875,-6.665435314178467,-1.0927472114562988,-0.957791805267334
1761237201750678000,0.923677978515625,-7.867813110351562,-1.5991582870483398,-1.7725790739059448
1761237201768727600,0.9417275390625,-8.178985595703125,-2.1268672943115234,-2.249496936798096
1761237201786764800,0.959764892578125,-7.63712215423584,-1.6819941997528076,-1.6725687980651855
1761237201804802600,0.977802490234375,-6.734710216522217,-0.6264839172363281,-2.0295839309692383
1761237201822840000,0.995840087890625,-6.3002214431762695,0.8426909446716309,-3.791369199752808
1761237201840875500,1.01387548828125,-5.148306846618652,2.0528955459594727,-5.871593475341797
1761237201858918700,1.031918701171875,0.5457963943481445,5.183999061584473,-7.078897953033447
1761237201876953600,1.04995361328125,8.034419059753418,6.401716232299805,-5.004081726074219
1761237201894990800,1.067990966796875,10.932549476623535,7.891035079956055,-2.6905946731567383
1761237201913022500,1.0860224609375,5.671904563903809,9.69312858581543,0.4263995885848999
1761237201931066600,1.104066650390625,9.055455207824709,11.821990966796877,2.6967506408691406
1761237201949090300,1.12209033203125,23.19890022277832,9.46527862548828,1.868568062782288
1761237201967135500,1.140135498046875,34.07562255859375,5.468406677246094,1.1466093063354492
1761237201985183700,1.158183837890625,34.74732971191406,4.089997291564941,3.3681788444519043
1761237202003217400,1.176217529296875,32.00825119018555,5.396838188171387,10.73737335205078
1761237202021255400,1.19425537109375,25.763259887695312,5.558170795440674,12.831892013549805
1761237202039293400,1.21229345703125,15.15219783782959,5.747854232788086,10.032552719116213
1761237202057331500,1.23033154296875,6.928318977355957,6.48072624206543,7.2284932136535645
1761237202075368400,1.248368408203125,3.896672248840332,6.122732639312744,4.300885677337647
1761237202093406700,1.26640673828125,3.446585178375244,4.627192497253418,0.8476600646972656
1761237202111444500,1.284444580078125,1.2338852882385254,3.654945373535156,-1.0209852457046509
1761237202129479700,1.302479736328125,-0.465939998626709,2.7603492736816406,-1.87842857837677
1761237202147522600,1.3205224609375,-2.843555450439453,0.4427728652954101,-2.70980167388916
1761237202165557500,1.3385576171875,-4.86490535736084,-1.8576674461364744,-2.239391565322876
1761237202183595300,1.35659521484375,-4.891653060913086,-5.02436113357544,-0.8960248231887817
1761237202201632300,1.37463232421875,-4.125984191894531,-8.470222473144531,0.6827813386917114
1761237202219671300,1.39267138671875,-2.431027889251709,-10.692188262939451,2.110931158065796
1761237202237708800,1.410708740234375,-1.9734776020050049,-11.93668270111084,2.0759127140045166
1761237202255746300,1.428746337890625,-2.66259503364563,-12.199092864990234,-0.1069643497467041
1761237202273784600,1.44678466796875,-4.486341953277588,-11.01311492919922,-2.238037109375
1761237202291821800,1.46482177734375,-6.858189105987549,-9.34336280822754,-3.064889430999756
1761237202309856800,1.482856689453125,-8.820893287658691,-7.877382278442383,-3.443207025527954
1761237202327900700,1.500900634765625,-10.417142868041992,-6.818275451660156,-3.7823972702026367
1761237202345932300,1.518932373046875,-11.780153274536133,-6.434604167938232,-3.626132011413574
1761237202363975400,1.536975341796875,-11.425729751586914,-5.838397979736328,-2.736117124557495
1761237202382010600,1.5550107421875,-9.753450393676758,-5.717930793762207,-1.7038711309432983
1761237202400040000,1.5730400390625,-6.47691535949707,-5.993840217590332,-0.8986396789550781
1761237202418075600,1.59107568359375,-2.0119166374206543,-5.954596519470215,-1.5101088285446167
1761237202436120300,1.609120361328125,-0.3561244010925293,-6.074539661407471,-1.880271792411804
1761237202454161400,1.627161376953125,0.1199145317077636,-5.403451442718506,-2.2772512435913086
1761237202472199700,1.64519970703125,-1.0119590759277344,-4.396453380584717,-2.13634991645813
1761237202490237700,1.66323779296875,-2.6896233558654785,-3.369690179824829,-1.6371581554412842
1761237202508271000,1.68127099609375,-3.895005702972412,-2.890383243560791,-1.314198613166809
1761237202526316500,1.699316650390625,-5.027763366699219,-2.751425266265869,-1.649443745613098
1761237202544350500,1.7173505859375,-5.4646100997924805,-2.887606620788574,-2.19693374633789
1761237202562382600,1.735382568359375,-5.158877372741699,-3.2588515281677246,-2.72513198852539
1761237202580426500,1.753426513671875,-5.253321647644043,-3.7766268253326416,-2.751124858856201
1761237202598463700,1.771463623046875,-5.688282012939453,-3.959658622741699,-2.3237271308898926
1761237202616501200,1.789501220703125,-6.206927299499512,-4.311819553375244,-2.139223098754883
1761237202634539800,1.807539794921875,-6.563079833984375,-4.440630912780762,-1.992180347442627
1761237202652576800,1.82557666015625,-6.961497783660889,-4.063281536102295,-2.167152404785156
1761237202670614800,1.84361474609375,-7.183054447174072,-3.3009042739868164,-2.795738697052002
1761237202688652500,1.861652587890625,-5.525786876678467,-1.377333641052246,-3.5125837326049805
1761237202706690800,1.87969091796875,-2.6464200019836426,2.201261043548584,-4.068756103515625
1761237202724727800,1.897727783203125,1.5296597480773926,7.259594917297363,-3.675060749053955
1761237202742765800,1.915765869140625,5.2678399085998535,11.508647918701172,-0.8697315454483032
1761237202760803300,1.93380322265625,13.719308853149414,13.928386688232422,0.0189367532730102
1761237202778841600,1.951841552734375,21.119972229003903,12.782367706298828,-1.0953551530838013
1761237202796866000,1.969865966796875,25.141193389892575,11.480745315551758,0.489054799079895
1761237202814910200,1.98791015625,31.732234954833984,8.334264755249023,3.751280307769776
1761237202832957200,2.005957275390625,38.41758728027344,4.69652271270752,5.81834077835083
1761237202850992400,2.023992431640625,32.9957275390625,3.002530574798584,4.9882402420043945
1761237202869029600,2.042029541015625,20.66360855102539,3.854576587677002,4.502109527587891
1761237202887067400,2.0600673828125,11.059876441955566,6.263120174407959,6.677268981933594
1761237202905106000,2.07810595703125,6.107264518737793,6.714539527893066,7.4322638511657715
1761237202923143700,2.096143798828125,3.008146286010742,5.400820255279541,6.508240222930908
1761237202941180000,2.114179931640625,0.0727519989013671,2.9266610145568848,3.86613130569458
1761237202959217700,2.1322177734375,-2.278754472732544,0.1733646392822265,1.8952219486236568
1761237202977255700,2.150255615234375,-3.2051711082458496,-3.0169124603271484,1.5207728147506714
1761237202995293400,2.16829345703125,-2.711233615875244,-6.604269027709961,2.167372465133667
1761237203013330700,2.18633056640625,-1.992088794708252,-9.404556274414062,2.574864387512207
1761237203031368400,2.204368408203125,-3.021334648132324,-10.47576141357422,2.3938632011413574
1761237203049406200,2.22240625,-5.476707458496094,-10.716425895690918,1.508184790611267
1761237203067444500,2.240444580078125,-7.376768112182617,-11.014546394348145,0.178544670343399
1761237203085482000,2.25848193359375,-9.677961349487305,-10.427745819091797,-0.6825781464576721
1761237203103519700,2.276519775390625,-12.032615661621094,-9.733672142028809,-0.959690809249878
1761237203121557800,2.294557861328125,-13.902307510375977,-8.83296012878418,-0.800973117351532
1761237203139595500,2.312595458984375,-15.386103630065918,-8.396303176879883,0.2651613354682922
1761237203157633000,2.330633056640625,-15.139434814453123,-9.22656536102295,1.104398250579834
1761237203175670800,2.3486708984375,-12.165708541870115,-10.026107788085938,1.3476009368896484
1761237203193708500,2.36670849609375,-8.846508026123047,-10.37080192565918,0.0452969074249267
1761237203211744500,2.38474462890625,-5.6083760261535645,-9.101946830749512,-2.0908799171447754
1761237203229785300,2.402785400390625,-5.3205671310424805,-7.281323432922363,-2.305041790008545
1761237203247821600,2.420821533203125,-5.771051406860352,-5.040416717529297,-2.564000129699707
1761237203265859300,2.438859375,-7.030735015869141,-3.192344903945923,-2.5378124713897705
1761237203283885800,2.4568857421875,-5.575642108917236,-1.6128244400024414,-1.5473709106445312
1761237203301935400,2.474935302734375,-2.7972469329833984,-0.4548978805541992,-0.5886825919151306
1761237203319973000,2.49297314453125,-1.405900955200195,0.4892787933349609,0.0846146345138549
1761237203338011000,2.511010986328125,-2.2498598098754883,1.3892889022827148,0.498913049697876
1761237203356048400,2.52904833984375,-3.649407386779785,1.8006541728973389,-0.1304912567138672
1761237203374079700,2.547079833984375,-3.7610111236572266,1.5338983535766602,-0.8286087512969971
1761237203392125400,2.56512548828125,-0.8720321655273438,1.049713373184204,-0.3759970664978027
1761237203410162000,2.583161865234375,2.9750356674194336,0.8941199779510498,1.015901803970337
1761237203428190200,2.601190185546875,4.826265335083008,1.346714973449707,1.511878252029419
1761237203446233300,2.6192333984375,4.441332817077637,2.777243137359619,0.6532940864562988
1761237203464275000,2.63727490234375,4.498828887939453,5.7313232421875,0.1493458747863769
1761237203482312700,2.655312744140625,9.386350631713867,8.696866035461426,0.3070428371429443
1761237203500350700,2.673350830078125,18.724018096923828,10.699142456054688,-0.7568866014480591
1761237203518388000,2.691387939453125,26.761348724365234,12.762048721313477,1.4854075908660889
1761237203536425700,2.70942578125,31.27476692199707,13.425748825073242,6.603214263916016
1761237203554463500,2.72746337890625,34.12723922729492,11.279813766479492,9.808587074279783
1761237203572501200,2.745501220703125,33.90035629272461,6.716792106628418,6.794411659240723
1761237203590539300,2.763539306640625,25.799991607666016,4.025981903076172,1.6689674854278564
1761237203608576800,2.78157666015625,16.6002254486084,4.596811294555664,0.6033046245574951
1761237203626614800,2.79961474609375,11.020427703857422,4.7945756912231445,2.524874687194824
1761237203644650500,2.817650390625,7.420444488525391,1.9676761627197263,3.284088611602783
1761237203662692400,2.8356923828125,2.204585552215576,-0.954875946044922,4.225415229797363
1761237203680728000,2.85372802734375,-2.5132951736450195,-1.8244805335998533,3.308023452758789
1761237203698765600,2.871765625,-6.466832637786865,-3.898195266723633,2.416090488433838
1761237203716803300,2.88980322265625,-9.457093238830566,-7.537230491638184,-1.5660079717636108
1761237203734841000,2.907841064453125,-9.366313934326172,-10.386168479919434,-2.9671201705932617
1761237203752878800,2.92587890625,-7.347417831420898,-12.372833251953123,-4.101888656616211
1761237203770917000,2.943917236328125,-5.210610866546631,-12.86365032196045,-4.750962257385254
1761237203788954600,2.96195458984375,-5.691287994384766,-12.784335136413574,-3.9516754150390634
1761237203806992100,2.9799921875,-7.8476481437683105,-12.376815795898438,-2.841274738311768
1761237203825030000,2.99802978515625,-9.710309982299805,-11.810044288635254,-2.0746541023254395
1761237203843068000,3.01606787109375,-11.095519065856934,-11.655784606933594,-1.6156585216522217
1761237203861105400,3.03410546875,-11.284090042114258,-11.973132133483888,-1.7115163803100586
1761237203879141600,3.0521416015625,-10.321365356445312,-12.142122268676758,-1.6038819551467896
1761237203897182200,3.07018212890625,-9.20864963531494,-11.793259620666504,-1.151321291923523
1761237203915218400,3.088218505859375,-8.91665267944336,-11.531744956970217,-0.9123289585113524
1761237203933262000,3.106261962890625,-9.556818008422852,-11.561603546142578,-0.6455674171447754
1761237203951283000,3.124282958984375,-9.758024215698242,-11.724611282348633,-1.1278020143508911
1761237203969331700,3.142331787109375,-8.239633560180664,-11.85708999633789,-1.827494978904724
1761237203987370200,3.160370361328125,-5.01034688949585,-11.77439308166504,-1.9644263982772827
1761237204005407500,3.178407470703125,0.3282523155212402,-10.439541816711426,-2.916792392730713
1761237204023445200,3.1964453125,1.0200223922729492,-9.079562187194824,-1.9690641164779663
1761237204041483000,3.21448291015625,0.1836366653442382,-6.595555305480957,-1.097114324569702
1761237204059520800,3.232520751953125,-1.6358428001403809,-4.456437110900879,-1.0198750495910645
1761237204077558300,3.250558349609375,-3.414713859558105,-3.0063235759735107,-1.7955329418182373
1761237204095596000,3.268595947265625,-4.077699661254883,-2.327924489974976,-3.109846591949463
1761237204113622300,3.286622314453125,-4.612124443054199,-1.733241081237793,-2.6501829624176025
1761237204131667700,3.304667724609375,-4.427072048187256,0.1559085845947265,-0.5221576690673828
1761237204149709800,3.322709716796875,-3.2418947219848637,1.44437837600708,0.6721203327178955
1761237204167747600,3.34074755859375,-1.948272705078125,1.4569191932678225,0.422692060470581
1761237204185784800,3.358784912109375,0.2172746658325195,1.873945236206055,0.3514931201934814
1761237204203824400,3.376824462890625,3.4665660858154297,4.296460151672363,1.2930045127868652
1761237204221860400,3.3948603515625,5.276697158813477,8.703648567199707,1.9612126350402832
1761237204239898400,3.4128984375,5.344144821166992,13.077080726623535,1.1999521255493164
1761237204257936400,3.430936279296875,16.10840606689453,15.167211532592772,3.3609347343444824
1761237204275974000,3.448973876953125,38.15560531616211,11.362255096435549,6.7506208419799805
1761237204294011400,3.467011474609375,47.54183197021485,7.7443528175354,7.725074768066406
1761237204312050000,3.4850498046875,45.09300994873047,5.987936019897461,9.999820709228516
1761237204330087400,3.50308740234375,39.31647491455078,4.907780647277832,13.759628295898438
1761237204348125200,3.521125244140625,30.646085739135746,2.78688383102417,14.073371887207031
1761237204366162700,3.53916259765625,21.35142135620117,0.9044442176818848,12.42154026031494
1761237204384200200,3.5572001953125,15.073419570922852,-0.8460202217102051,10.631566047668455
1761237204402238000,3.575238037109375,11.127985000610352,-2.8115806579589844,8.171276092529297
1761237204420275700,3.593275634765625,6.055683135986328,-4.235666751861572,5.045491695404053
1761237204438313500,3.6113134765625,0.5267703533172607,-5.251456260681152,1.686388611793518
1761237204456351500,3.6293515625,-3.506398677825928,-6.1940107345581055,-2.17156195640564
1761237204474389500,3.647389404296875,-6.912368297576904,-6.367458343505859,-4.656944274902344
1761237204492426800,3.6654267578125,-9.409427642822266,-6.51258659362793,-5.829653739929199
1761237204510465000,3.683465087890625,-8.926466941833496,-7.582188129425049,-5.485200881958008
1761237204528502800,3.701502685546875,-6.6423845291137695,-9.388344764709473,-4.307470321655273
1761237204546540300,3.719540283203125,-4.315223217010498,-10.636411666870115,-2.3316352367401123
1761237204564578000,3.737578125,-2.479508399963379,-11.16936492919922,-1.6145533323287964
1761237204582615800,3.75561572265625,-2.4645867347717285,-11.077752113342283,-1.5860084295272827
1761237204600660000,3.773659912109375,-3.2056026458740234,-11.027908325195312,-2.115395784378052
1761237204618681600,3.791681640625,-4.560824871063232,-11.191116333007812,-3.2356104850769043
1761237204636729000,3.80972900390625,-5.740415573120117,-11.398662567138672,-4.226916313171387
1761237204654766600,3.8277666015625,-6.733541488647461,-11.25091552734375,-4.649330139160156
1761237204672804600,3.8458046875,-7.56430196762085,-11.29753589630127,-4.27086067199707
1761237204690842600,3.863842529296875,-8.618836402893066,-11.006271362304688,-4.15687370300293
1761237204708880400,3.88188037109375,-8.863391876220703,-10.525236129760742,-3.5116870403289795
1761237204726918400,3.89991845703125,-8.357172012329102,-9.950469970703123,-3.431960105895996
1761237204744956000,3.917955810546875,-7.009071350097656,-9.645965576171877,-3.908512353897095
1761237204762993200,3.9359931640625,-4.821396827697754,-9.06650733947754,-3.776371955871582
1761237204781035000,3.954034912109375,-2.892367362976074,-8.298044204711914,-3.487694501876831
1761237204799069000,3.97206884765625,-1.4808063507080078,-6.823541641235352,-2.825474262237549
1761237204817106700,3.990106689453125,-0.4217095375061035,-5.289484977722168,-2.564948558807373
1761237204835144400,4.00814453125,-0.9019060134887696,-4.078795433044434,-2.652042865753174
1761237204853182000,4.026181884765625,-2.445916652679444,-3.0981369018554688,-2.9173402786254883
1761237204871219500,4.044219482421875,-3.7023561000823975,-2.158885717391968,-2.974536418914795
1761237204889258000,4.062258056640625,-3.6843671798706055,-1.552001953125,-3.227085828781128
1761237204907295700,4.080295654296875,-3.692575454711914,-0.9997274875640868,-3.661675214767456
1761237204925333200,4.098333251953125,-3.117079734802246,-0.4422445297241211,-3.81921911239624
1761237204943371000,4.11637109375,-2.340617656707764,0.3915047645568847,-3.251838207244873
1761237204961408800,4.13440869140625,-1.7000598907470703,1.6779165267944336,-2.436638832092285
1761237204979446300,4.1524462890625,-0.5919713973999023,3.4059410095214844,-1.6824989318847656
1761237204997484500,4.170484619140625,2.099856376647949,6.585052967071533,-1.5323927402496338
1761237205015521500,4.188521484375,4.59190845489502,10.478036880493164,-1.5257757902145386
1761237205033560300,4.206560302734375,7.99958324432373,13.788597106933594,-1.3949530124664309
1761237205051597300,4.224597412109375,18.178720474243164,15.690635681152344,-0.477752685546875
1761237205069635000,4.242635009765625,29.122182846069336,15.761005401611328,4.184621810913086
1761237205087672800,4.2606728515625,30.24288749694824,16.377410888671875,9.167572975158691
1761237205105711000,4.278711181640625,30.045286178588867,15.351480484008787,12.984676361083984
1761237205123748900,4.296748779296875,34.24392318725586,11.162738800048828,13.967803001403809
1761237205141786400,4.314786376953125,31.661510467529297,5.427177906036377,9.838180541992188
1761237205159811000,4.33281103515625,22.446428298950195,1.8868412971496584,4.816153049468994
1761237205177850000,4.35085009765625,14.323786735534668,1.6877546310424805,3.555104255676269
1761237205195889200,4.36888916015625,7.988192081451416,2.8309717178344727,4.609340667724609
1761237205213937200,4.386937255859375,3.701623916625977,1.9204511642456052,3.973430156707764
1761237205231975000,4.404974853515625,0.0700244903564453,-0.1091346740722656,2.115055561065674
1761237205250013000,4.423012939453125,-2.811531543731689,-1.931476593017578,1.1169779300689695
1761237205268050700,4.44105078125,-4.32621955871582,-3.8156986236572266,-0.1780910491943359
1761237205286076700,4.45907666015625,-5.462101936340332,-6.362186908721924,-1.7599735260009766
1761237205304121300,4.477121337890625,-4.989779472351074,-9.447461128234863,-2.3708295822143555
1761237205322165000,4.4951650390625,-2.47690224647522,-12.456747055053713,-2.347360134124756
1761237205340202000,4.513201904296875,-0.8091458082199097,-13.810714721679688,-2.213313102722168
1761237205358239500,4.531239501953125,-1.3760662078857422,-13.87252712249756,-2.3088982105255127
1761237205376276200,4.549276123046875,-2.82006573677063,-13.656309127807615,-2.944667339324951
1761237205394316500,4.567316650390625,-5.127858638763428,-13.14775276184082,-3.852607250213623
1761237205412352500,4.5853525390625,-7.727843284606934,-12.464204788208008,-4.626382827758789
1761237205430390800,4.603390869140625,-9.658407211303713,-11.802437782287598,-4.681507110595703
1761237205448425500,4.621425537109375,-10.160953521728516,-11.27939224243164,-4.4755167961120605
1761237205466466300,4.63946630859375,-9.109747886657717,-11.09400749206543,-3.11018180847168
1761237205484504000,4.657504150390625,-6.944034576416016,-10.97629165649414,-1.7750627994537354
1761237205502542000,4.6755419921875,-4.788061141967773,-11.12993621826172,-1.2863508462905884
1761237205520579300,4.693579345703125,-3.55797815322876,-11.348122596740724,-1.24212908744812
1761237205538617000,4.7116171875,-3.306364059448242,-11.202993392944336,-1.651581883430481
1761237205556655000,4.729655029296875,-3.338862895965576,-10.42973518371582,-2.255342483520508
1761237205574692600,4.747692626953125,-3.689289808273315,-9.364553451538086,-2.7154526710510254
1761237205592730600,4.765730712890625,-4.541164398193359,-8.213730812072754,-3.013471841812134
1761237205610768400,4.783768310546875,-4.1025495529174805,-7.050504684448242,-2.892019748687744
1761237205628806400,4.801806396484375,-3.291110038757324,-6.115272521972656,-2.5864148139953613
1761237205646844000,4.819843994140625,-2.7340993881225586,-4.921920776367188,-1.9924324750900269
1761237205664882000,4.8378818359375,-3.453028678894043,-3.7315523624420166,-1.6020503044128418
1761237205682918100,4.855918212890625,-4.606239318847656,-2.4588303565979004,-1.3409693241119385
1761237205700958500,4.87395849609375,-5.118293762207031,-1.837639331817627,-1.39681077003479
1761237205718994400,4.891994384765625,-4.833224296569824,-1.2077651023864746,-1.4682857990264893
1761237205737033000,4.910032958984375,-2.7142586708068848,-0.5567078590393066,-0.9966051578521729
1761237205755070200,4.9280703125,0.6966428756713867,0.5076117515563965,-0.8339946269989014
1761237205773108200,4.946108154296875,3.9163355827331534,3.245652198791504,-1.7076013088226318
1761237205791144700,4.964144775390625,5.037688255310059,7.881714820861816,-3.151270866394043
1761237205809184800,4.982184814453125,4.7342143058776855,11.68882942199707,-2.7765283584594727
1761237205827221000,5.000220947265625,11.13963508605957,14.575189590454102,1.52508807182312
1761237205845260800,5.0182607421875,27.615428924560547,14.347436904907228,8.004059791564941
1761237205863297300,5.03629736328125,34.32926940917969,12.415445327758787,8.789259910583496
1761237205881335300,5.054335205078125,32.49880599975586,13.03120231628418,8.36323070526123
1761237205899372500,5.07237255859375,34.77089309692383,12.609012603759766,9.874889373779297
1761237205917410300,5.090410400390625,34.14454650878906,10.479745864868164,10.089597702026367
1761237205935448300,5.1084482421875,27.95347023010254,7.950576782226562,10.369304656982422
1761237205953475800,5.126475830078125,20.877029418945312,6.857659339904785,12.402311325073242
1761237205971508200,5.14450830078125,16.025997161865234,5.121971130371094,12.299663543701172
1761237205989561900,5.162561767578125,12.993741989135742,1.4567031860351562,9.44333267211914
1761237206007599600,5.180599609375,9.805242538452148,-2.963129997253418,5.96756649017334
1761237206025637400,5.198637451171875,4.926887512207031,-6.095927238464356,2.50259017944336
1761237206043676000,5.216676025390625,-0.4519619941711426,-7.904953479766846,-0.5888330936431885
1761237206061712100,5.234712158203125,-4.6047210693359375,-8.651899337768555,-2.99721622467041
1761237206079750700,5.252750732421875,-7.45026683807373,-8.44376277923584,-4.369265556335449
1761237206097788400,5.270788330078125,-8.693224906921387,-9.143611907958984,-5.744421005249023
1761237206115823400,5.2888232421875,-7.670693397521973,-11.409235000610352,-5.648361206054688
1761237206133859000,5.306859130859375,-5.097375869750977,-13.522168159484863,-4.320601940155029
1761237206151902200,5.324902099609375,-2.045417308807373,-14.795435905456545,-3.251866102218628
1761237206169939700,5.342939697265625,-0.4502183198928833,-15.370650291442873,-3.082559108734131
1761237206187977200,5.360977294921875,0.2384061813354492,-15.507719039916992,-4.051466464996338
1761237206206015000,5.379014892578125,-0.6049392223358154,-14.965843200683594,-4.96429443359375
1761237206224052700,5.397052734375,-3.07212495803833,-14.015741348266602,-5.291463851928711
1761237206242090800,5.4150908203125,-5.371541976928711,-12.771369934082031,-4.916662216186523
1761237206260128500,5.43312841796875,-7.103977203369141,-11.6687650680542,-4.51841926574707
1761237206278166300,5.451166259765625,-8.229727745056152,-10.786368370056152,-3.687793731689453
1761237206296204300,5.469204345703125,-7.998060703277588,-10.37944793701172,-2.6938552856445312
1761237206314242300,5.4872421875,-6.491649627685547,-10.445515632629396,-1.8439583778381348
1761237206332279600,5.505279541015625,-4.773016929626465,-10.563299179077148,-1.3896244764328003
1761237206350317600,5.523317626953125,-3.339893579483032,-10.612631797790527,-1.3722050189971924
1761237206368355000,5.54135498046875,-1.225458025932312,-10.231327056884766,-2.1764657497406006
1761237206386392800,5.559392822265625,-1.0583314895629885,-9.610239028930664,-2.1804256439208984
1761237206404430600,5.5774306640625,-1.4126543998718262,-8.221962928771973,-2.0992627143859863
1761237206422468600,5.595468505859375,-1.561540603637695,-7.007392883300781,-1.853065133094788
1761237206440506600,5.613506591796875,-1.1018195152282717,-6.067779541015625,-1.3816392421722412
1761237206458544400,5.63154443359375,-0.1975703239440918,-5.394218921661377,-0.7223126888275146
1761237206476582100,5.64958203125,0.4865527153015136,-5.014588356018066,-0.438646912574768
1761237206494618400,5.667618408203125,0.6574411392211914,-4.331578731536865,-0.1921005249023437
1761237206512658000,5.685657958984375,1.2037630081176758,-3.1860179901123047,-0.2601579427719116
1761237206530697000,5.703697021484375,2.554410457611084,0.8286247253417969,-1.5198537111282349
1761237206548732000,5.72173193359375,2.5822830200195312,7.209804534912109,-4.31568717956543
1761237206566772200,5.739772216796875,0.5667819976806641,12.897575378417969,-4.973907470703125
1761237206584808700,5.75780859375,1.8531513214111328,16.74024772644043,-2.6954240798950195
1761237206602846700,5.7758466796875,14.196452140808104,15.874486923217772,4.331892013549805
1761237206620882700,5.793882568359375,30.148517608642575,11.14389705657959,6.730025291442871
1761237206638922200,5.811922119140625,30.22285461425781,9.292743682861328,3.7772297859191895
1761237206656960000,5.8299599609375,23.05774688720703,8.865880966186523,2.4110636711120605
1761237206674997800,5.847997802734375,19.447105407714844,7.068090915679932,1.4958698749542236
1761237206693035500,5.866035400390625,14.24953269958496,4.855884075164795,0.7300095558166504
1761237206711073500,5.884073486328125,7.3404645919799805,3.19553804397583,0.7863433361053467
1761237206729110800,5.90211083984375,1.416769027709961,1.5424814224243164,2.500697374343872
1761237206747149300,5.9201494140625,-2.3685669898986816,0.8209052085876465,5.716549396514893
1761237206765186800,5.938186767578125,-4.284149169921875,-0.0678033828735351,6.237638473510742
1761237206783224300,5.956224365234375,-3.9569153785705566,-2.567748546600342,3.8219146728515625
1761237206801262000,5.974261962890625,-5.2200846672058105,-4.525574684143066,1.753237247467041
1761237206819300000,5.992300048828125,-6.255533218383789,-5.033201694488525,-0.2763811349868774
1761237206837337900,6.010337890625,-6.868381500244141,-5.11252498626709,-0.9414337873458862
1761237206855375600,6.028375732421875,-6.755458354949951,-4.711784362792969,-0.6139683723449707
1761237206873413400,6.046413330078125,-5.307798385620117,-4.817903995513916,-0.3160477876663208
1761237206891451100,6.064451171875,-4.408203125,-4.099699974060059,-1.784013271331787
1761237206909489400,6.082489501953125,-3.5351758003234863,-3.6639561653137207,-2.344768047332764
1761237206927527200,6.100527099609375,-4.283835887908936,-2.823749303817749,-2.2849855422973637
1761237206945565000,6.11856494140625,-4.716508865356445,-3.176231622695923,0.0518229007720947
1761237206963599000,6.13659912109375,-4.143320083618164,-5.151379585266113,2.1587157249450684
1761237206981640700,6.154640625,-1.2720298767089844,-3.672677993774414,-0.7340455055236816
1761237206999678200,6.17267822265625,4.586929321289063,-2.5831422805786133,-1.9623165130615237
1761237207017714700,6.190714599609375,7.727171897888184,-2.574532985687256,-1.368232011795044
1761237207035751400,6.20875146484375,7.154811859130859,-2.958026885986328,-1.5611830949783323
1761237207053791200,6.226791259765625,5.151518821716309,-2.467665433883667,-1.8708691596984863
1761237207071829000,6.2448291015625,2.410548210144043,-0.8462605476379395,-1.5988402366638184
1761237207089867000,6.262866943359375,0.1317758560180664,0.4239468574523926,0.2065895497798919
1761237207107905300,6.2809052734375,-0.1432361602783203,-0.201395034790039,2.3134446144104004
1761237207125942800,6.29894287109375,1.381667137145996,-1.4807474613189695,3.51468563079834
1761237207143980800,6.316980712890625,2.721961975097656,0.0182170867919921,1.6947319507598877
1761237207162018300,6.335018310546875,1.0706663131713867,0.6106157302856445,0.2737017571926117
1761237207180056300,6.353056396484375,0.0836753845214843,0.291745662689209,0.3843527436256408
1761237207198094000,6.371093994140625,0.0761260986328125,-0.2354617118835449,0.255675345659256
1761237207216131800,6.3891318359375,0.012822151184082,-0.6156926155090332,0.0337311625480651
1761237207234169300,6.40716943359375,-0.0819149017333984,-0.786778450012207,-0.0800666511058807
1761237207252207400,6.425207275390625,-0.0243563652038574,-1.0007624626159668,-0.3723100125789642
1761237207270245000,6.4432451171875,-0.2003316879272461,-1.0203938484191897,-0.6680394411087036
1761237207288273700,6.461273681640625,-0.407684326171875,-0.7234382629394531,-0.4953893423080444
1761237207306321400,6.4793212890625,0.4785442352294922,-0.5600070953369141,-0.1683340668678283
1761237207324358700,6.497358642578125,0.8209972381591797,-0.4898428916931152,0.4867177009582519
1761237207342396400,6.515396484375,-1.0335021018981934,-0.3450727462768554,0.4013579487800598
1761237207360434200,6.53343408203125,-2.09647274017334,-0.4662666320800781,-0.901877760887146
1761237207378472200,6.55147216796875,-0.570589542388916,-0.8190765380859375,-1.1197421550750732
1761237207396509700,6.569509765625,1.2063040733337402,-0.9404683113098145,-0.922023355960846
1761237242119249400,0.12224951171875,0.4849567413330078,-0.2765575647354126,-0.9148015975952148
1761237242137271600,0.140271484375,-0.0405836105346679,-0.5260420441627502,-0.2000370025634765
1761237242155318500,0.158318603515625,-1.3803701400756836,0.2816551923751831,1.0792924165725708
1761237242173356300,0.176356201171875,-1.8719868659973145,0.0394244194030761,1.1901735067367554
1761237242191394000,0.19439404296875,-1.0786333084106443,0.0223105549812316,1.2570210695266724
1761237242209431800,0.212431884765625,-0.7449302673339844,0.0130119919776916,1.448913335800171
1761237242227457800,0.230457763671875,-0.5444459915161133,-0.2787191569805145,0.9991662502288818
1761237242245507000,0.248507080078125,-0.5049018859863281,-0.3961986303329468,-0.1075507998466491
1761237242263541000,0.266541015625,-1.4874563217163086,-0.3654794991016388,-0.362342357635498
1761237242281582600,0.28458251953125,-3.254319190979004,-0.4857514202594757,0.3152852654457092
1761237242299620000,0.3026201171875,-2.658108711242676,-0.4086720645427704,1.4246892929077148
1761237242317657600,0.32065771484375,-1.910658836364746,-1.0517596006393433,-0.1223026514053344
1761237242335695400,0.3386953125,-4.632820129394531,-1.5396909713745115,1.6397992372512815
1761237242353728500,0.356728515625,-6.2633442878723145,-0.8278580904006958,0.5366543531417847
1761237242371771000,0.37477099609375,-7.817417144775391,-1.7599551677703855,-1.8550872802734373
1761237242389808600,0.39280859375,-4.697352409362793,-1.4947879314422607,-1.1679277420043943
1761237242407846700,0.4108466796875,-3.1725292205810547,-0.1679807901382446,-0.5177360773086548
1761237242425884200,0.42888427734375,-1.475908279418945,0.6165975332260132,-0.082393079996109
1761237242443922000,0.446921875,0.3638172149658203,0.3391417264938354,1.9319355487823489
1761237242461959000,0.464958984375,3.473227500915528,0.0472810268402099,2.725358009338379
1761237242479997400,0.48299755859375,7.501327514648437,1.7008849382400513,1.5914337635040283
1761237242498034700,0.50103466796875,9.402332305908203,2.561173439025879,1.125385046005249
1761237242516072400,0.519072509765625,9.688060760498049,3.151231288909912,1.7107868194580078
1761237242534109700,0.537109619140625,10.92577075958252,4.003673076629639,3.632342338562012
1761237242552148000,0.55514794921875,14.411187171936035,3.043912410736084,5.276278495788574
1761237242570185500,0.573185546875,20.33465576171875,0.7818065881729126,4.948235511779785
1761237242588223500,0.591223388671875,23.01153945922852,-1.982463240623474,3.24062180519104
1761237242606261200,0.60926123046875,21.481342315673828,-3.0951623916625977,1.6307562589645386
1761237242624296700,0.627296630859375,17.43263816833496,-2.968458414077759,-2.323500633239746
1761237242642338600,0.645338623046875,14.226567268371582,-4.200462818145752,-6.26198148727417
1761237242660374300,0.663374267578125,9.09076976776123,-3.056515693664551,-5.241826057434082
1761237242678411500,0.68141162109375,5.130538940429688,-3.5277256965637207,-5.554588794708252
1761237242696449300,0.69944921875,-3.971936225891113,1.0158547163009644,-5.316606044769287
1761237242714487000,0.717487060546875,-12.664739608764648,-0.8888773918151855,-4.139884471893311
1761237242732508000,0.7355078125,-17.057296752929688,-4.102999210357666,2.007055759429932
1761237242750562600,0.7535625,-19.19000244140625,-4.857913970947266,7.768879413604736
1761237242768600000,0.77160009765625,-20.517770767211918,-3.979063034057617,8.789356231689453
1761237242786638000,0.78963818359375,-19.713632583618164,-3.0618672370910645,5.914117336273193
1761237242804675800,0.80767578125,-17.643354415893555,-2.73050594329834,3.0847537517547607
1761237242822713300,0.82571337890625,-14.847166061401367,-2.395349502563477,0.5925291776657104
1761237242840750800,0.843750732421875,-11.504030227661133,-1.9543291330337524,-0.9627768993377686
1761237242858788900,0.861788818359375,-9.452733039855955,-1.6519194841384888,-1.4417061805725098
1761237242876826000,0.879826171875,-7.877067565917969,-0.4208449125289917,-1.068361759185791
1761237242894864000,0.89786376953125,-7.621264934539795,0.3946545422077179,-0.7819742560386658
1761237242912902000,0.91590185546875,-7.93964147567749,0.7104187607765198,-0.880160927772522
1761237242930939400,0.933939453125,-7.456883430480957,1.0991908311843872,-0.3032200336456299
1761237242948976600,0.9519765625,-6.256937026977539,1.049036741256714,0.4630912542343139
1761237242967012900,0.970012939453125,-5.481593608856201,0.7644713521003723,0.8620814681053162
1761237242985054200,0.98805419921875,-5.565510272979736,0.5802569389343262,1.1048606634140017
1761237243003090000,1.00608984375,-6.3913421630859375,0.288938045501709,1.547895431518555
1761237243021128200,1.024128173828125,-7.508481502532959,-0.1163181066513061,2.252948045730591
1761237243039165400,1.04216552734375,-8.025662422180176,-0.6821194887161255,2.3538260459899902
1761237243057203500,1.060203369140625,-8.725966453552246,-1.0696218013763428,1.3127604722976685
1761237243075241000,1.078240966796875,-8.511055946350098,-2.3758935928344727,1.1266324520111084
1761237243093278200,1.0962783203125,-6.591878414154053,-0.8989595770835876,0.956479549407959
1761237243111314700,1.114314697265625,-5.022641658782959,0.4923834800720215,-0.0849967002868652
1761237243129355500,1.13235546875,-2.8223047256469727,2.2391529083251958,1.9183589220047
1761237243147391500,1.1503916015625,4.301304817199707,-0.8063635230064392,5.104246139526367
1761237243165429000,1.168428955078125,14.30984592437744,-2.418668746948242,2.560279130935669
1761237243183467500,1.186467529296875,23.891063690185547,-3.857021331787109,-5.22985315322876
1761237243201504300,1.204504150390625,29.52307891845703,-6.048246383666992,-6.26543664932251
1761237243219542800,1.222542724609375,29.061050415039062,-3.576115369796753,-5.33710527420044
1761237243237580000,1.240580078125,24.60162734985352,0.3719247579574585,-8.511561393737793
1761237243255617500,1.258617431640625,22.472070693969727,1.211096167564392,-7.195846557617188
1761237243273650000,1.27664990234375,21.80352783203125,0.0242923498153686,-3.638080596923828
1761237243291682000,1.29468212890625,20.326616287231445,-0.8087444305419922,-1.4293677806854248
1761237243309732000,1.312732177734375,18.038249969482425,-1.1763544082641602,0.6991806030273438
1761237243327767300,1.330767333984375,15.226584434509276,-0.9691808223724364,2.6059858798980717
1761237243345807400,1.348807373046875,11.447346687316896,-0.2334120273590088,1.7708909511566162
1761237243363843800,1.36684375,7.513411521911621,-0.5243159532546997,-1.334968328475952
1761237243381881600,1.384881591796875,7.009431838989258,-4.6055908203125,-2.322432041168213
1761237243399907300,1.4029072265625,3.624277114868164,-1.702166199684143,-3.731503963470459
1761237243417957000,1.42095703125,-1.8910245895385744,-2.2572269439697266,-2.044506072998047
1761237243435994400,1.438994384765625,-7.471978187561035,0.3235682845115661,1.582306146621704
1761237243454032000,1.457031982421875,-13.360328674316406,-1.5564510822296145,4.251530647277832
1761237243472070000,1.47506982421875,-16.94861602783203,-2.6735622882843018,5.464189529418945
1761237243490107600,1.493107666015625,-19.394306182861328,-2.311947822570801,4.736512184143066
1761237243508145700,1.511145751953125,-21.514131546020508,-1.581188440322876,2.1686558723449707
1761237243526183200,1.52918310546875,-20.47948837280273,-1.2344506978988647,0.2141432762145996
1761237243544220700,1.547220703125,-16.746829986572266,-1.6253913640975952,0.120305061340332
1761237243562252300,1.565252197265625,-13.71293830871582,-2.248647928237915,0.6605712175369263
1761237243580296200,1.583296142578125,-10.959753036499023,-2.148823499679565,1.0072513818740845
1761237243598333700,1.601333740234375,-8.859604835510254,-1.2790485620498655,1.184043526649475
1761237243616371700,1.619371826171875,-7.386915683746338,-0.3358281850814819,0.5053337812423706
1761237243634409000,1.637408935546875,-6.9565277099609375,0.7912976145744324,-0.339127242565155
1761237243652446700,1.65544677734375,-6.137734413146973,1.5308223962783811,-0.676789402961731
1761237243670484500,1.673484375,-5.560869216918945,1.907439112663269,-0.5634552240371704
1761237243688522200,1.691522216796875,-5.421713829040527,1.9882287979125977,-0.1096118092536926
1761237243706559700,1.709559814453125,-5.824833869934082,2.041198253631592,0.4770585894584656
1761237243724597800,1.72759765625,-6.60003137588501,1.9445371627807615,0.9538919925689696
1761237243742635300,1.74563525390625,-7.428225994110107,1.80192232131958,1.183293342590332
1761237243760673000,1.763673095703125,-8.365772247314453,1.6484155654907229,1.522709846496582
1761237243778709200,1.781709228515625,-9.393145561218262,1.249226212501526,1.8808917999267576
1761237243796748300,1.799748291015625,-10.071128845214844,0.8580838441848755,1.5863597393035889
1761237243814781000,1.817781005859375,-10.677220344543455,0.7987833023071289,1.0563225746154783
1761237243832824300,1.83582421875,-10.28458023071289,-0.7836637496948242,0.4621541500091553
1761237243850855400,1.85385546875,-8.202315330505371,0.1757060885429382,1.9307961463928225
1761237243868891100,1.87189111328125,-5.291461944580078,-0.1457365751266479,1.5753557682037354
1761237243886937900,1.889937744140625,0.1440010070800781,-0.2582162618637085,3.588828086853028
1761237243904975600,1.9079755859375,9.332719802856444,-3.636549949645996,4.111020565032959
1761237243923012600,1.9260126953125,21.022777557373047,-6.382381439208984,3.676205635070801
1761237243941050600,1.944050537109375,26.899805068969727,-7.281278133392334,2.783048391342163
1761237243959088400,1.96208837890625,28.686744689941406,-3.613292694091797,-0.2777063846588135
1761237243977126100,1.980126220703125,28.62806510925293,-1.7544244527816772,-5.169413089752197
1761237243995164000,1.998163818359375,22.994857788085938,-0.3746418952941894,-4.059891223907471
1761237244013201700,2.01620166015625,20.41045570373535,-1.657642126083374,2.336688995361328
1761237244031237000,2.034237060546875,19.18228912353516,-2.173769950866699,5.434279918670654
1761237244049279700,2.05227978515625,19.55923843383789,-2.9357151985168457,3.85283875465393
1761237244067313200,2.070313232421875,19.57832717895508,-3.434089422225952,1.4391456842422483
1761237244085352000,2.08835205078125,17.614782333374023,-2.097046136856079,-1.152393460273743
1761237244103389700,2.1063896484375,13.75257396697998,-0.0550423264503479,-4.456998348236084
1761237244121428200,2.12442822265625,9.300750732421877,-0.05910325050354,-5.08842134475708
1761237244139465000,2.14246484375,6.238397598266602,-1.5001939535140991,-1.6289182901382446
1761237244157503000,2.1605029296875,2.017939567565918,-1.6469237804412842,-1.1857872009277344
1761237244175540500,2.17854052734375,-2.666686534881592,-2.510352373123169,0.1912398636341095
1761237244193575700,2.19657568359375,-7.517206192016602,-4.604066371917725,1.0548542737960815
1761237244211617800,2.21461767578125,-11.01339626312256,-3.795684814453125,1.5388203859329224
1761237244229655000,2.232655029296875,-15.139423370361328,-1.2382456064224243,1.2636995315551758
1761237244247691500,2.25069140625,-17.28973388671875,0.331444501876831,-0.541671097278595
1761237244265729800,2.268729736328125,-19.63954162597656,-1.3724197149276731,0.0327038913965225
1761237244283769000,2.28676904296875,-19.366527557373047,-1.4244897365570068,1.6637409925460815
1761237244301804000,2.304803955078125,-17.211719512939453,-2.166353940963745,1.765912652015686
1761237244319841800,2.322841796875,-15.119078636169434,-2.669742584228516,1.143748760223389
1761237244337879800,2.3408798828125,-12.26816463470459,-2.7604565620422363,1.0001317262649536
1761237244355913200,2.358913330078125,-10.429605484008787,-2.145543575286865,0.8803059458732605
1761237244373944000,2.376944091796875,-10.100172996520996,-1.241342067718506,-0.4308335185050964
1761237244391993300,2.394993408203125,-9.522907257080078,-0.3935885727405548,-1.6186691522598269
1761237244410031000,2.413031005859375,-8.934454917907715,-0.075805127620697,-2.352276563644409
1761237244428064500,2.431064453125,-8.005020141601562,-0.0144177079200744,-2.170629978179932
1761237244446109200,2.449109130859375,-7.617546558380127,0.096061885356903,-1.3544914722442627
1761237244464143600,2.4671435546875,-7.568432331085205,0.1029928922653198,-0.3244683444499969
1761237244482169600,2.485169677734375,-8.03217887878418,0.3235780596733093,0.2793145775794983
1761237244500206600,2.50320654296875,-8.533557891845703,0.4708139896392822,0.201596587896347
1761237244518256400,2.52125634765625,-8.624170303344727,0.4776008725166321,0.37098029255867
1761237244536287200,2.539287353515625,-8.535198211669922,0.3471238017082214,0.7985738515853882
1761237244554332200,2.557332275390625,-8.79539680480957,0.5084844827651978,0.8083897829055786
1761237244572369400,2.575369384765625,-9.185385704040527,1.1493672132492063,0.4886809587478637
1761237244590407200,2.5934072265625,-8.962794303894043,1.2814757823944092,0.2781656980514526
1761237244608445000,2.61144482421875,-7.667850494384766,-0.0454877018928527,1.1465439796447754
1761237244626482700,2.629482666015625,-4.381437301635742,1.3948519229888916,2.897514820098877
1761237244644520000,2.64752001953125,0.4535894393920898,3.078965663909912,3.666402578353882
1761237244662558000,2.665557861328125,9.534622192382812,-0.3621861934661865,4.025761604309082
1761237244680595500,2.683595458984375,21.862138748168945,-5.452633380889893,5.899825572967529
1761237244698633700,2.7016337890625,31.340673446655277,-10.918018341064451,4.44108247756958
1761237244716671000,2.7196708984375,33.842899322509766,-11.530118942260742,5.8500566482543945
1761237244734708200,2.737708251953125,28.96622085571289,-6.668455600738525,3.873658418655396
1761237244752746200,2.755746337890625,20.836803436279297,-0.685965895652771,-1.1361913681030271
1761237244770784000,2.773783935546875,19.059476852416992,0.1559494733810424,-5.404416084289551
1761237244788821200,2.7918212890625,20.867733001708984,-1.7375094890594482,-6.054528713226318
1761237244806859300,2.809859375,20.76732063293457,-3.544980525970459,-3.1245484352111816
1761237244824897000,2.82789697265625,18.983455657958984,-4.148323059082031,1.3439724445343018
1761237244842935000,2.84593505859375,15.528000831604004,-3.1281886100769043,3.282952308654785
1761237244860972500,2.86397265625,11.046711921691896,-0.8765857815742493,1.2685731649398804
1761237244879010000,2.882010009765625,6.988576889038086,-1.5978991985321045,0.0540046691894531
1761237244897047300,2.90004736328125,6.083279609680176,-3.058887720108032,0.2438943982124328
1761237244915085800,2.9180859375,3.42483901977539,-2.8523478507995605,-1.8460612297058103
1761237244933121000,2.93612109375,-2.0129613876342773,-0.2263206243515014,-1.8231570720672607
1761237244951162000,2.954162109375,-8.87800121307373,0.5615769028663635,-0.6499264240264893
1761237244969198300,2.9721982421875,-15.624731063842772,-3.0187551975250244,3.516695737838745
1761237244987236000,2.990236083984375,-19.526996612548828,-3.317718267440796,6.681906223297119
1761237245005261600,3.008261474609375,-19.97398376464844,-2.2746236324310303,5.954333782196045
1761237245023311400,3.026311279296875,-20.368061065673828,-2.026455402374268,2.6776063442230225
1761237245041348000,3.04434814453125,-17.20981216430664,-2.111217737197876,0.7660804986953735
1761237245059388200,3.06238818359375,-14.166181564331056,-2.603752613067627,0.1394008994102478
1761237245077424000,3.080424072265625,-12.457924842834473,-2.718644142150879,-0.1527483463287353
1761237245095458300,3.098458251953125,-11.761534690856934,-2.423067569732666,-0.1575124263763427
1761237245113502700,3.116502685546875,-11.222956657409668,-1.909740209579468,0.0897796750068664
1761237245131539200,3.134539306640625,-10.520870208740234,-1.2029685974121094,0.1753944158554077
1761237245149563100,3.152563232421875,-9.987969398498535,-0.4701130390167236,-0.4614858627319336
1761237245167604700,3.170604736328125,-9.17233657836914,0.6501283049583435,-0.6400720477104187
1761237245185650700,3.188650634765625,-8.759708404541016,0.2867699563503265,-0.9428160786628724
1761237245203684900,3.206684814453125,-8.1676664352417,0.8989310264587402,-0.601180374622345
1761237245221725700,3.2247255859375,-7.7001051902771,0.8000528812408447,-0.1303628087043762
1761237245239763500,3.242763427734375,-7.190315246582031,0.899293065071106,0.3076499700546264
1761237245257801000,3.260801025390625,-7.012521743774414,0.7526185512542725,0.6485026478767395
1761237245275835100,3.278835205078125,-7.244456768035889,0.6567126512527466,1.000150442123413
1761237245293876200,3.296876220703125,-7.951241493225098,0.8378461599349976,1.768731713294983
1761237245311914000,3.3149140625,-8.895992279052734,1.2404383420944214,1.9992191791534424
1761237245329952300,3.3329521484375,-9.509359359741213,1.7223014831542969,1.7658772468566897
1761237245347990300,3.350990234375,-9.327570915222168,2.052132606506348,0.8558204174041748
1761237245366022100,3.369022216796875,-8.068897247314453,0.6487946510314941,0.5529048442840576
1761237245384065300,3.387065185546875,-4.133565425872803,-0.3413938283920288,1.9291921854019165
1761237245402102800,3.405102783203125,-0.2971963882446289,0.8136523365974426,4.57243537902832
1761237245420140500,3.423140625,2.9725542068481445,1.072805881500244,4.539540767669678
1761237245438177500,3.441177490234375,16.163358688354492,-2.61869478225708,3.970479011535645
1761237245456215600,3.459215576171875,23.690837860107425,-7.5654988288879395,5.897058486938477
1761237245474253300,3.47725341796875,29.673433303833008,-8.979362487792969,4.585051536560059
1761237245492291300,3.495291259765625,29.96000289916992,-6.962263107299805,1.9792472124099727
1761237245510328600,3.51332861328125,25.376728057861328,-1.9883878231048584,0.2682994604110718
1761237245528366300,3.531366455078125,24.48396873474121,-0.4064874649047851,-5.12165641784668
1761237245546404000,3.549404052734375,25.05878448486328,-1.5090200901031494,-6.018766403198242
1761237245564442000,3.567442138671875,23.465333938598636,-3.2906620502471924,-2.6551246643066406
1761237245582479600,3.585479736328125,21.148046493530277,-4.374139785766602,1.307013750076294
1761237245600515000,3.60351513671875,18.04963111877441,-3.647645711898804,4.19569206237793
1761237245618556400,3.621556396484375,13.775793075561523,-1.543379306793213,3.707550525665283
1761237245636592600,3.639592529296875,8.847254753112793,0.1647823750972747,0.9373714923858644
1761237245654629600,3.657629638671875,4.8482770919799805,-0.1101519465446472,0.5950857996940613
1761237245672667600,3.675667724609375,2.623586654663086,-1.455268383026123,0.0396761298179626
1761237245690705700,3.69370556640625,-0.1504554748535156,-1.7683947086334229,0.0237387642264366
1761237245708743400,3.711743408203125,-4.364170551300049,-0.3533506393432617,0.8492206931114197
1761237245726781000,3.729781005859375,-9.231427192687988,-0.1470739245414734,2.215411424636841
1761237245744818700,3.747818603515625,-13.962017059326172,-0.90844464302063,3.911383390426636
1761237245762856000,3.76585595703125,-18.39108657836914,0.1326387077569961,5.432382106781006
1761237245780894500,3.78389453125,-21.250362396240234,0.5494600534439087,4.363221645355225
1761237245798931200,3.80193115234375,-20.256784439086918,0.1696648597717285,2.131309032440185
1761237245816969000,3.819968994140625,-16.694507598876953,0.2569971084594726,1.8700422048568728
1761237245835006700,3.8380068359375,-14.162663459777832,-0.5089549422264099,1.4056618213653564
1761237245853042200,3.856042236328125,-11.66452980041504,-1.0058629512786863,1.5847065448760986
1761237245871084500,3.87408447265625,-9.443471908569336,-1.1944801807403564,1.4826890230178833
1761237245889120000,3.8921201171875,-8.199223518371582,-0.8509398698806763,1.1053659915924072
1761237245907157500,3.910157470703125,-8.428104400634766,0.6352145671844482,0.4063115119934082
1761237245925195500,3.928195556640625,-9.151986122131348,1.2144992351531982,-0.0487549901008605
1761237245943232500,3.946232421875,-9.300804138183594,1.7518993616104126,-0.301927387714386
1761237245961269800,3.964269775390625,-9.004945755004883,2.2852652072906494,-0.8990957736968994
1761237245979309600,3.9823095703125,-8.329297065734863,2.459137201309204,-1.4911973476409912
1761237245997346600,4.0003466796875,-7.805882930755615,2.48933482170105,-1.571681261062622
1761237246015383000,4.018383056640625,-7.331924438476562,2.5619232654571533,-0.8861249089241028
1761237246033422300,4.03642236328125,-7.24041223526001,2.4614005088806152,-0.2131041884422302
1761237246051448000,4.054447998046875,-6.870545387268066,2.1970787048339844,0.7780497670173645
1761237246069497000,4.0724970703125,-6.687469005584717,2.279651165008545,1.7679529190063477
1761237246087533800,4.090533935546875,-7.916427612304687,2.6390984058380127,1.8257811069488523
1761237246105572400,4.108572265625,-8.55126953125,3.1249349117279053,1.5801671743392944
1761237246123609300,4.126609375,-8.66445255279541,3.4355363845825195,1.205737590789795
1761237246141647600,4.144647705078125,-8.120168685913086,2.1158390045166016,0.6978861093521118
1761237246159684600,4.1626845703125,-5.99701738357544,1.426880955696106,0.7102261781692505
1761237246177723000,4.180722900390625,-3.86578369140625,1.4485753774642944,2.755385637283325
1761237246195756800,4.1987568359375,0.2080440521240234,1.275160789489746,4.307797431945801
1761237246213792300,4.216792236328125,10.6890230178833,-4.775327682495117,4.541762351989746
1761237246231835400,4.23483544921875,18.12147521972656,-8.51748275756836,6.055229187011719
1761237246249873700,4.252873779296875,24.13147354125977,-12.53067398071289,6.049097061157227
1761237246267907300,4.2709072265625,27.36126136779785,-12.968169212341309,6.780297756195068
1761237246285952800,4.288952880859375,27.62817001342773,-8.410030364990234,1.5886149406433103
1761237246303986000,4.30698583984375,25.34423065185547,-5.350611686706543,-4.825628280639648
1761237246322023700,4.325023681640625,24.161439895629883,-4.655823707580566,-5.914606094360352
1761237246340061400,4.3430615234375,21.03699111938477,-5.930929183959961,-1.8562815189361568
1761237246358088200,4.361088134765625,18.255767822265625,-6.654691696166992,3.450415134429932
1761237246376136400,4.379136474609375,15.69065761566162,-6.495759963989258,6.311981678009033
1761237246394175000,4.397175048828125,13.577802658081056,-6.132134914398193,7.401865482330322
1761237246412212500,4.41521240234375,13.469979286193848,-6.610471725463867,6.06942892074585
1761237246430250200,4.433250244140625,13.193954467773438,-5.129804611206055,1.1322360038757324
1761237246448287700,4.451287841796875,11.016761779785156,-3.302945137023926,-3.0772244930267334
1761237246466325500,4.469325439453125,7.589413642883301,-1.7218313217163086,-4.551187992095947
1761237246484363000,4.487363037109375,0.9959611892700196,-0.2647633552551269,-4.478524684906006
1761237246502401000,4.505401123046875,-6.327208518981934,-0.5449739694595337,-0.636145830154419
1761237246520438000,4.52343798828125,-12.41057300567627,-1.0881608724594116,3.208437204360962
1761237246538476000,4.54147607421875,-15.524306297302246,-1.9089568853378296,5.30750846862793
1761237246556514000,4.55951416015625,-18.39032745361328,-2.5353827476501465,5.235759735107422
1761237246574551600,4.577551513671875,-20.49422264099121,-1.8183741569519043,4.662397861480713
1761237246592588800,4.5955888671875,-19.77680969238281,-1.155893087387085,3.556547880172729
1761237246610626300,4.613626220703125,-17.308216094970703,-1.0105924606323242,3.0548698902130127
1761237246628664800,4.631664794921875,-15.250821113586426,-1.3997422456741333,2.9639954566955566
1761237246646702600,4.64970263671875,-12.94882583618164,-2.065425395965576,2.4203505516052246
1761237246664739600,4.667739501953125,-10.660964965820312,-2.307714939117432,1.120055913925171
1761237246682777300,4.68577734375,-9.496644020080566,-2.0721921920776367,-0.1818028688430786
1761237246700815000,4.703815185546875,-9.086662292480469,-1.2257509231567385,-0.878748893737793
1761237246718853000,4.72185302734375,-9.222071647644045,-0.6576637625694275,-1.474982976913452
1761237246736890000,4.73989013671875,-9.442968368530272,-0.3513465523719787,-1.559420466423035
1761237246754928000,4.75792822265625,-9.577739715576172,0.0495691448450088,-0.7935372591018677
1761237246772965600,4.775965576171875,-9.534741401672363,-0.0397731363773345,-0.1531060934066772
1761237246791003600,4.794003662109375,-9.425442695617676,-0.1258890926837921,0.2173137068748474
1761237246809041000,4.812041015625,-9.139837265014648,-0.2452713847160339,0.2888545989990234
1761237246827079200,4.8300791015625,-9.12696647644043,-0.0708277821540832,0.7089927792549133
1761237246845117000,4.848116943359375,-9.555845260620115,0.2657195925712585,0.9451283812522888
1761237246863140600,4.866140625,-10.26075267791748,0.7750136852264404,0.7123991847038269
1761237246881183200,4.884183349609375,-10.299388885498049,1.023819088935852,0.4988787174224853
1761237246899232000,4.90223193359375,-10.023321151733398,1.239196538925171,0.1393791437149047
1761237246917267500,4.920267333984375,-9.552135467529297,0.9311673641204834,0.288725733757019
1761237246935302400,4.938302490234375,-8.066484451293945,0.830869197845459,0.8359725475311279
1761237246953344800,4.9563447265625,-5.58431339263916,1.8353290557861328,0.9861078858375548
1761237246971379000,4.97437890625,-3.1479644775390625,3.5020782947540283,1.9957128763198853
1761237246989411000,4.9924111328125,2.319851875305176,-0.5827271938323975,1.823820948600769
1761237247007457300,5.010457275390625,16.043609619140625,-3.665614366531372,2.395969867706299
1761237247025493200,5.0284931640625,18.559585571289062,-7.927996635437012,2.843329906463623
1761237247043530800,5.04653076171875,20.48759078979492,-8.61428451538086,3.5867955684661865
1761237247061568800,5.06456884765625,18.58037567138672,-6.743292808532715,2.9352121353149414
1761237247079606500,5.0826064453125,16.15566635131836,-5.2210774421691895,1.5163315534591677
1761237247097644000,5.10064404296875,13.64681911468506,-5.380800247192383,-0.0953165292739868
1761237247115681800,5.118681884765625,10.767592430114746,-5.213601589202881,-0.7845222353935242
1761237247133719600,5.136719482421875,7.176846504211426,-3.72233510017395,-1.0889668464660645
1761237247151756000,5.154756103515625,6.06441593170166,-2.5850300788879395,-1.9442698955535889
1761237247169795300,5.17279541015625,7.750119209289551,-3.272745370864868,-0.5646831393241882
1761237247187820500,5.190820556640625,9.222274780273438,-3.4702277183532715,2.31807279586792
1761237247205866500,5.208866455078125,8.87620735168457,-2.4939124584198,4.448521614074707
1761237247223908000,5.226908203125,9.133337020874023,-1.8845593929290767,4.385020732879639
1761237247241945000,5.244945068359375,11.3788423538208,-2.49576735496521,3.1770694255828857
1761237247259982600,5.262982666015625,13.461915016174316,-2.8552284240722656,1.9986218214035036
1761237247278005000,5.2810048828125,13.330310821533203,-2.3940346240997314,1.5632308721542358
1761237247296058400,5.299058349609375,13.425052642822266,-2.801950216293335,1.962543249130249
1761237247314096000,5.31709619140625,13.56332015991211,-3.546185255050659,3.0568501949310303
1761237247332134000,5.3351337890625,12.88612461090088,-4.187504768371582,4.307103157043457
1761237247350171400,5.35317138671875,11.56208038330078,-3.7044332027435294,2.8312370777130127
1761237247368209400,5.37120947265625,10.31145191192627,-2.942227840423584,-1.0923341512680054
1761237247386247000,5.389246826171875,8.775396347045898,-2.288037776947021,-4.989286422729492
1761237247404284400,5.407284423828125,5.138890266418457,-1.1734970808029177,-5.615052700042725
1761237247422322000,5.425322021484375,-0.2529029846191406,-0.4151448011398315,-3.8533694744110103
1761237247440360000,5.44335986328125,-5.860193252563477,-0.6218286752700806,-1.5433909893035889
1761237247458397000,5.46139697265625,-10.230948448181152,-1.991984248161316,-0.1492214053869247
1761237247476435000,5.47943505859375,-13.810315132141112,-1.1201461553573608,2.276972770690918
1761237247494472400,5.497472412109375,-16.475147247314453,-2.3682668209075928,2.834645986557007
1761237247512510500,5.515510498046875,-17.989269256591797,-1.2872552871704102,3.873627424240112
1761237247530547700,5.533547607421875,-19.51112365722656,-0.7883288264274597,3.0045382976531982
1761237247548585700,5.551585693359375,-19.190879821777344,-0.8877667188644409,1.3534088134765625
1761237247566623500,5.56962353515625,-16.47534942626953,-1.1285221576690674,1.3571442365646362
1761237247584661200,5.5876611328125,-13.995087623596191,-1.7459890842437744,1.1901681423187256
1761237247602698500,5.605698486328125,-11.639907836914062,-2.1297993659973145,0.6323407292366028
1761237247620736300,5.623736328125,-10.208292961120604,-1.7300748825073242,-0.3865846395492553
1761237247638774000,5.64177392578125,-9.270498275756836,-1.3917313814163208,-1.442753791809082
1761237247656811800,5.659811767578125,-8.372586250305176,-0.6164999604225159,-2.129652976989746
1761237247674849300,5.677849365234375,-8.315372467041016,-0.0501545667648315,-2.454756259918213
1761237247692887300,5.69588720703125,-8.491808891296387,0.3400917053222656,-1.8012373447418213
1761237247710925000,5.713925048828125,-8.883779525756836,0.496817797422409,-0.9422661066055298
1761237247728962800,5.731962890625,-8.996976852416992,0.6697983145713806,-0.1484303474426269
1761237247746996700,5.749996826171875,-8.702527046203613,0.7292829155921936,0.4199309647083282
1761237247765041000,5.768041015625,-8.44264030456543,0.6794929504394531,0.7858142256736755
1761237247783075600,5.78607568359375,-8.595947265625,0.5355753302574158,0.9204171895980836
1761237247801113300,5.80411328125,-8.349987030029297,0.2532520294189453,0.7798206806182861
1761237247819150300,5.822150390625,-8.254904747009277,0.4649127125740051,0.3249674439430237
1761237247837176600,5.840176513671875,-8.914388656616211,1.066936731338501,-0.0967748165130615
1761237247855225900,5.858225830078125,-9.402528762817385,0.7099486589431763,-0.0542297065258026
1761237247873266200,5.87626611328125,-8.264025688171387,0.287185788154602,0.4752033650875091
1761237247891298800,5.894298828125,-6.04252290725708,2.5428264141082764,1.41790509223938
1761237247909340200,5.912340087890625,-5.363215446472168,4.174709320068359,1.751795530319214
1761237247927376400,5.93037646484375,2.065171241760254,-0.669897198677063,1.9025822877883911
1761237247945414700,5.94841455078125,8.827498435974121,-3.418484926223755,1.259905219078064
1761237247963452000,5.966451904296875,11.873698234558104,-5.09193229675293,2.3491055965423584
1761237247981490000,5.984489990234375,13.991376876831056,-5.028972625732422,1.9644840955734253
1761237247999527400,6.00252734375,12.756945610046388,-3.8148655891418457,1.5114837884902954
1761237248017565200,6.020565185546875,11.704090118408203,-4.099431991577148,1.611175298690796
1761237248035602700,6.038602783203125,10.360883712768556,-4.797250747680664,1.7883057594299316
1761237248053640700,6.056640625,9.04814910888672,-4.462573051452637,1.8149588108062744
1761237248071678200,6.07467822265625,7.823932647705078,-3.64056658744812,1.0823311805725098
1761237248089716200,6.09271630859375,7.80812931060791,-3.4905941486358643,1.3011070489883425
1761237248107753200,6.110753173828125,8.188942909240723,-3.6699540615081783,2.936746120452881
1761237248125787600,6.12878759765625,8.162389755249023,-3.323285818099976,3.784629821777344
1761237248143828700,6.146828857421875,8.575516700744629,-3.356890916824341,3.622133255004883
1761237248161866800,6.16486669921875,9.64091682434082,-4.10003137588501,2.22653865814209
1761237248179903700,6.18290380859375,10.337494850158691,-4.452828407287598,0.595781683921814
1761237248197931300,6.20093115234375,9.590806007385254,-3.758363962173462,0.0966410636901855
1761237248215979300,6.218979248046875,8.42434310913086,-2.9004626274108887,0.523288369178772
1761237248234013200,6.23701318359375,8.29184341430664,-3.215399265289306,1.2687374353408811
1761237248252059000,6.255058837890625,8.69480037689209,-3.865100145339966,1.9354820251464844
1761237248270091500,6.273091552734375,9.34938907623291,-4.389613151550293,1.826653003692627
1761237248288131000,6.291131103515625,10.103755950927734,-5.058197975158691,1.740806221961975
1761237248306167800,6.309167724609375,11.091634750366213,-5.558320999145508,1.488162636756897
1761237248324205000,6.327205078125,12.783221244812012,-6.134623527526856,1.1467547416687012
1761237248342243000,6.3452431640625,14.294358253479004,-6.721673488616943,0.3628262281417846
1761237248360280800,6.36328076171875,13.787721633911133,-5.43009090423584,-1.8150559663772583
1761237248378318800,6.38131884765625,12.030928611755373,-3.4313464164733887,-5.285336971282959
1761237248396355600,6.39935546875,8.30773639678955,-1.8662114143371584,-6.802814960479736
1761237248414393600,6.4173935546875,1.7593793869018557,-0.9430840015411376,-4.545771598815918
1761237248432431000,6.43543115234375,-5.503390312194824,-1.823533535003662,0.0345612168312072
1761237248450469400,6.453469482421875,-10.200300216674805,-0.8905031681060791,4.091094970703125
1761237248468506600,6.471506591796875,-13.726736068725586,-0.7847914695739746,5.042303562164307
1761237248486544100,6.489544189453125,-16.251859664916992,-0.0892556607723236,4.805606842041016
1761237248504574200,6.50757421875,-19.882688522338867,-2.2794203758239746,6.538479328155518
1761237248522620000,6.525619873046875,-20.105817794799805,-1.552375316619873,6.017006874084473
1761237248540657200,6.5436572265625,-19.651561737060547,-1.189357042312622,5.155765533447266
1761237248558695200,6.561695068359375,-19.15829086303711,-1.2370072603225708,3.8721823692321777
1761237248576732400,6.579732421875,-16.641427993774414,-2.12117862701416,2.5561304092407227
1761237248594770200,6.597770263671875,-13.606649398803713,-2.9842569828033447,1.4507439136505127
1761237248612807700,6.6158076171875,-11.310663223266602,-3.14048433303833,0.4792934656143188
1761237248630845700,6.633845703125,-10.069345474243164,-2.279681444168091,-0.9474501013755798
1761237248648883500,6.651883544921875,-10.07791519165039,-1.5284457206726074,-2.9488658905029297
1761237248666921200,6.669921142578125,-9.334917068481444,-1.158792495727539,-3.3681795597076416
1761237248684958500,6.68795849609375,-8.192785263061523,-1.0683549642562866,-2.7099924087524414
1761237248702996500,6.70599658203125,-7.391921997070312,-1.1948527097702026,-1.9910967350006104
1761237248721034000,6.724033935546875,-6.8323163986206055,-1.1485991477966309,-1.113799810409546
1761237248739072000,6.742072021484375,-7.285157680511475,-0.7982115745544434,-0.4132414758205414
1761237248757109000,6.76010888671875,-7.952644348144531,-0.5727903246879578,-0.0611493587493896
1761237248775146800,6.778146728515625,-7.8263654708862305,-0.7221121191978455,0.5239798426628113
1761237248793184500,6.7961845703125,-7.335391044616699,-0.8435196876525879,0.8146185278892517
1761237248811223600,6.8142236328125,-7.412745475769043,-0.6283807754516602,0.6333804130554199
1761237248829258800,6.8322587890625,-5.348328113555908,1.1539568901062012,1.2316460609436035
1761237248847297800,6.8502978515625,-1.204188346862793,4.188565731048584,4.236420631408691
1761237248865321200,6.8683212890625,2.2515439987182617,5.86171293258667,5.697582244873047
1761237248883375900,6.8863759765625,7.511737823486328,5.476917266845703,2.5739405155181885
1761237248901407200,6.9044072265625,13.095354080200195,2.8825199604034424,-2.9099788665771484
1761237248919451600,6.92245166015625,17.412105560302734,-3.270519256591797,-4.747058391571045
1761237248937485600,6.940485595703125,21.47589683532715,-10.58357048034668,-2.939120054244995
1761237248955523800,6.95852392578125,23.679323196411133,-12.44625473022461,0.1504736542701721
1761237248973560800,6.976560791015625,21.11544418334961,-9.557872772216797,3.124288558959961
1761237248991604000,6.99460400390625,16.547088623046875,-5.386406898498535,2.5433061122894287
1761237249009624800,7.012624755859375,12.037373542785645,-1.7797322273254397,-1.2032692432403564
1761237249027674600,7.030674560546875,10.66064453125,0.7999908924102783,-3.2275161743164062
1761237249045712000,7.0487119140625,7.305150985717773,1.2798502445220947,-3.855432510375977
1761237249063750000,7.06675,3.8606348037719727,0.9646308422088624,-2.523857593536377
1761237249081787600,7.08478759765625,-0.7550077438354492,1.1392580270767212,-1.517482042312622
1761237249099825200,7.1028251953125,-4.270403861999512,1.6482962369918823,-1.469049096107483
1761237249117861000,7.120861083984375,-6.12889289855957,2.62485146522522,-0.3869487643241882
1761237249135895600,7.1388955078125,-7.806079864501953,2.770026445388794,1.5798134803771973
1761237249153937700,7.156937744140625,-9.000666618347168,2.4944286346435547,3.51387357711792
1761237249171961600,7.174961669921875,-9.0228853225708,1.6580992937088013,4.818009853363037
1761237249190015500,7.193015380859375,-7.45089054107666,0.7928087711334229,4.72638750076294
1761237249208051000,7.211051025390625,-3.765766143798828,-0.3631739616394043,2.61536169052124
1761237249226088700,7.229088623046875,1.8413677215576167,-0.2171464562416076,2.276449680328369
1761237249244126200,7.247126220703125,0.3450393676757812,-1.076274871826172,2.916466236114502
1761237249262163200,7.2651630859375,0.4775505065917969,-0.6513169407844543,4.072390556335449
1761237249280201500,7.283201416015625,1.4397592544555664,-1.2369582653045654,3.4514095783233643
1761237249298239200,7.3012392578125,1.9667482376098635,-1.652461290359497,1.8400828838348389
1761237249316277000,7.319277099609375,0.6128215789794922,-2.2841134071350098,0.359982281923294
1761237249334314000,7.33731396484375,0.032790184020996,-3.007786512374878,-1.0045781135559082
1761237249352352000,7.35535205078125,7.377799987792969,-7.91457462310791,-7.131095409393311
1761237249370375400,7.37337548828125,0.6374101638793945,-5.715743541717529,-5.247771263122559
1761237249388430600,7.3914306640625,-1.6194190979003906,0.5563589334487915,1.0706707239151
1761237249406462000,7.4094619140625,-2.388644218444824,1.331413507461548,2.2371902465820312
1761237249424505600,7.427505615234375,-2.222808837890625,-0.32781982421875,0.0780456066131591
1761237249442540300,7.445540283203125,-1.0370874404907229,0.74932861328125,-0.7515230774879456
1761237249460578000,7.463578125,2.077566146850586,0.9279110431671144,1.766985535621643
1761237249478615600,7.481615478515625,1.6138896942138672,-2.451918363571167,0.0197846889495849
1761237249496653000,7.499653076171875,0.9365921020507812,-0.4891896247863769,1.8171772956848145
1761237249514691000,7.517691162109375,-0.2246656417846679,-0.6706116199493408,1.2761503458023071
1761237249532729000,7.53572900390625,-1.060725212097168,-0.8652372360229492,1.0826677083969116
1761237249550763300,7.55376318359375,-2.4823036193847656,-0.1484293937683105,0.443224549293518
1761237249568793000,7.57179296875,-2.456380844116211,0.2248053550720214,-0.2722178697586059
1761237249586844700,7.5898447265625,-1.7266764640808103,-0.0609297752380371,-0.4081807136535644
1761237249604877300,7.607877197265625,-1.3762421607971191,-0.7275681495666504,-0.1764537096023559
1761237249622919000,7.6259189453125,-1.2147908210754397,-1.1306512355804443,0.2706414461135864
1761237249640954400,7.643954345703125,-0.7832837104797363,-1.268667697906494,0.208717942237854
1761237249658992000,7.6619921875,-0.384063720703125,-1.4849319458007812,0.0694786310195922
1761237249677015600,7.680015625,-1.113663673400879,-1.4414784908294678,-0.1072018146514892
1761237249695067100,7.698067138671875,-2.4987668991088867,-0.5613665580749512,0.8523386716842651
1761237249713105400,7.71610546875,-2.2111144065856934,-0.4264101982116699,0.6047942638397217
1761237249731143000,7.734142822265625,-0.8616886138916016,-0.5298604965209961,-0.1645000576972961
1761237249749180700,7.7521806640625,0.2934646606445312,-0.7312283515930176,0.0900405049324035
1761237266809502500,0.10150244140625,0.1126747131347656,0.2966477870941162,-1.824960708618164
1761237266827572500,0.119572509765625,1.0251922607421875,0.3652477264404297,-0.4443414211273193
1761237266845610000,0.13760986328125,0.0403404235839843,0.143654465675354,0.6884322166442871
1761237266863660500,0.15566064453125,-1.6801633834838867,0.0767868757247924,1.643879771232605
1761237266881697300,0.173697265625,-2.2875847816467285,0.8989740610122681,-0.1067338585853576
1761237266899731200,0.191731201171875,-1.1825475692749023,1.10371732711792,0.1178957819938659
1761237266917772300,0.209772216796875,-0.5917072296142578,1.089897394180298,-0.4354580640792846
1761237266935809800,0.227809814453125,-0.9895334243774414,0.9032859802246094,-0.1532342433929443
1761237266953847800,0.245847900390625,-1.152909278869629,0.4777970314025879,0.0651640892028808
1761237266971885300,0.26388525390625,-0.7256927490234375,0.2481757402420044,-0.3490817546844482
1761237266989917400,0.28191748046875,-0.9734230041503906,0.0731253623962402,-0.3870071172714233
1761237267007961600,0.299961669921875,-1.4305076599121094,0.1877539157867431,0.115304946899414
1761237267025998300,0.317998291015625,-0.8748435974121094,0.1140551567077636,0.4278198480606079
1761237267044024300,0.3360244140625,-0.7098617553710938,0.0546276569366455,0.0691176652908325
1761237267062073000,0.354072998046875,-0.9360332489013672,0.4608173370361328,0.7833175659179688
1761237267080111600,0.372111572265625,-2.066854953765869,-0.1511933803558349,1.212312936782837
1761237267098149400,0.3901494140625,-1.9449682235717771,-0.2241709232330322,1.317461371421814
1761237267116187100,0.408187255859375,-1.770462989807129,-0.1292436122894287,1.149748682975769
1761237267134225000,0.426224853515625,-1.7370014190673828,0.8050329685211182,0.7225276231765747
1761237267152262700,0.4442626953125,-0.7784442901611328,1.5223100185394287,-0.2279069423675537
1761237267170300200,0.462300048828125,-2.506117343902588,1.0584115982055664,0.471949815750122
1761237267188338000,0.480337890625,-3.312373638153076,0.6131432056427002,1.85442852973938
1761237267206380800,0.498380859375,-2.882753372192383,0.538111686706543,1.610465407371521
1761237267224402700,0.516402587890625,-2.389586925506592,0.8026213645935059,1.142937421798706
1761237267242451200,0.534451171875,-2.414389133453369,1.3928747177124023,0.3752362728118896
1761237267260488400,0.552488525390625,-3.0776538848876958,2.2052786350250244,-0.4372847080230713
1761237267278526700,0.570526611328125,-2.92334508895874,2.760281562805176,-0.9590833187103271
1761237267296563700,0.588563720703125,-3.167089939117432,2.774363279342652,-1.1678390502929688
1761237267314601500,0.6066015625,-3.9403185844421382,2.7283120155334477,-0.5325756072998047
1761237267332639200,0.62463916015625,-3.993866920471192,2.34842848777771,-0.2492085695266723
1761237267350677000,0.642677001953125,-3.195741653442383,1.957448959350586,-0.4208053350448608
1761237267368714800,0.66071484375,-3.037619113922119,1.4875359535217283,-0.5336079597473145
1761237267386752500,0.67875244140625,-2.331578731536865,1.186434268951416,-0.4980237483978271
1761237267404790300,0.696790283203125,-1.6759624481201172,1.1414880752563477,-0.0893821716308593
1761237267422828300,0.714828369140625,-0.6497092247009277,0.7839460372924805,-0.1397186517715454
1761237267440865500,0.732865478515625,0.8780689239501953,0.2367486953735351,-0.9414047598838806
1761237267458903300,0.7509033203125,2.062162399291992,-0.161229133605957,-1.861932635307312
1761237267476940800,0.76894091796875,2.8295955657958984,-0.1094622611999511,-2.1410934925079346
1761237267494978800,0.786978759765625,2.8464927673339844,0.0628118515014648,-1.9234108924865725
1761237267513015800,0.805015869140625,2.5318942070007324,0.166229248046875,-1.7631752490997314
1761237267531053800,0.8230537109375,2.1554646492004395,0.205820083618164,-1.55208158493042
1761237267549091800,0.841091796875,2.5659637451171875,-0.2324328422546386,-1.6810743808746338
1761237267567129600,0.859129638671875,2.809394359588623,-0.8086557388305664,-0.984377145767212
1761237267585166300,0.877166259765625,3.2813687324523926,-1.355086326599121,0.2332203686237335
1761237267603205600,0.89520556640625,4.072527885437012,-1.5817365646362305,0.2370495349168777
1761237267621243100,0.9132431640625,5.446711540222168,-1.9759368896484373,-0.0403450429439544
1761237267639279900,0.93127978515625,6.291377544403076,-2.3689961433410645,0.3775420188903808
1761237267657317000,0.949317138671875,7.028469085693359,-3.1296606063842773,0.5844343900680542
1761237267675356400,0.9673564453125,8.295804023742676,-4.199756622314453,0.1058187782764434
1761237267693393200,0.98539306640625,9.925704956054688,-5.405192852020264,-0.2294188439846038
1761237267711423700,1.003423828125,11.755012512207031,-6.1334004402160645,-0.3284828066825866
1761237267729468700,1.02146875,13.92795467376709,-6.462746620178223,-1.1781599521636963
1761237267747506700,1.039506591796875,14.249307632446287,-6.284966945648193,-1.7848241329193115
1761237267765544200,1.057544189453125,12.95362377166748,-6.015750885009766,-1.9151344299316408
1761237267783582200,1.075582275390625,11.469368934631348,-5.542937278747559,-2.0705435276031494
1761237267801619200,1.093619140625,10.803500175476074,-5.342879295349121,-2.24529767036438
1761237267819653000,1.111653076171875,11.523988723754885,-5.580235004425049,-2.180755138397217
1761237267837695500,1.129695556640625,13.393280029296877,-6.102653980255127,-2.637769937515259
1761237267855732700,1.147732666015625,13.446330070495604,-5.699151992797852,-2.694347858428955
1761237267873770200,1.165770263671875,11.9038724899292,-4.449887275695801,-2.821197509765625
1761237267891805200,1.18380517578125,9.09270477294922,-2.1508827209472656,-3.1675353050231934
1761237267909845800,1.201845703125,4.59465217590332,1.443979024887085,-4.411656379699707
1761237267927883800,1.2198837890625,0.2073421478271484,4.775739669799805,-6.157774448394775
1761237267945921000,1.237921142578125,-1.0185260772705078,5.026691436767578,-7.86065149307251
1761237267963958500,1.25595849609375,2.7416305541992188,0.2099990844726562,-4.4786810874938965
1761237267981996000,1.27399609375,2.9402523040771484,-4.067540645599365,0.7870293855667114
1761237268000034000,1.292033935546875,-3.067418098449707,-5.348832130432129,3.323963165283203
1761237268018071600,1.310071533203125,-10.041952133178713,-4.634645462036133,4.324201583862305
1761237268036109600,1.328109619140625,-16.470230102539062,-2.273033857345581,2.9824488162994385
1761237268054147000,1.34614697265625,-21.511688232421875,0.0491132736206054,1.4927544593811035
1761237268072185300,1.364185302734375,-22.80150604248047,0.6695477962493896,0.6949345469474792
1761237268090222600,1.38222265625,-18.91109848022461,0.0655056238174438,0.205645203590393
1761237268108260600,1.400260498046875,-13.710341453552246,-0.7247178554534912,-0.1070905327796936
1761237268126298000,1.418298095703125,-10.173060417175291,0.0992228984832763,0.1486411094665527
1761237268144335600,1.436335693359375,-10.089558601379396,2.852771520614624,-0.8736009001731873
1761237268162373000,1.454373046875,-10.48686981201172,5.324295997619629,-2.5922017097473145
1761237268180411000,1.472410888671875,-9.622036933898926,5.7302680015563965,-2.704742908477783
1761237268198448400,1.490448486328125,-7.983122825622559,5.005744934082031,-1.558990478515625
1761237268216486700,1.508486572265625,-6.747199058532715,3.8236336708068848,-0.3197354078292846
1761237268234523100,1.526523193359375,-6.649179458618164,2.7836971282958984,0.9688020944595336
1761237268252561700,1.544561767578125,-7.431029796600342,2.039532423019409,1.433490753173828
1761237268270600200,1.56260009765625,-8.342555046081543,1.7705919742584229,1.822620749473572
1761237268288637700,1.5806376953125,-9.320749282836914,1.7178289890289309,1.9009463787078855
1761237268306675000,1.598675048828125,-10.025262832641602,2.2142066955566406,1.511958122253418
1761237268324712700,1.616712646484375,-10.498461723327637,2.540418863296509,1.3810083866119385
1761237268342750200,1.634750244140625,-10.66873550415039,2.667574882507324,1.1919317245483398
1761237268360788000,1.6527880859375,-10.74539566040039,2.983548641204834,0.7273474335670471
1761237268378825700,1.67082568359375,-10.660249710083008,3.173753499984741,0.321201354265213
1761237268396850400,1.688850341796875,-10.422006607055664,3.137492656707764,0.1737018823623657
1761237268414889700,1.7068896484375,-10.171778678894045,3.034153461456299,-0.0260900817811489
1761237268432940300,1.724940185546875,-8.925677299499512,2.600846767425537,-0.3793992400169372
1761237268450976300,1.742976318359375,-7.217647075653076,2.320793390274048,-0.8189266920089722
1761237268469014500,1.7610146484375,-5.148505687713623,2.726560354232788,-1.7646273374557495
1761237268487050500,1.779050537109375,-4.240170478820801,1.916353464126587,-1.636120080947876
1761237268505091300,1.79709130859375,-2.194620132446289,2.1406731605529785,1.773940086364746
1761237268523127600,1.81512744140625,2.7949657440185547,-0.7657980918884277,4.216228485107422
1761237268541165300,1.833165283203125,12.115419387817385,-4.605062007904053,2.8732829093933105
1761237268559187000,1.85118701171875,19.39535903930664,-6.555088043212891,0.6444903612136841
1761237268577240800,1.86924072265625,21.4403076171875,-5.524470806121826,-1.648624062538147
1761237268595277300,1.88727734375,21.28982162475586,-7.396664142608643,-3.330542087554932
1761237268613316400,1.90531640625,16.647525787353516,-7.916504383087158,-2.3113255500793457
1761237268631353300,1.923353271484375,9.572426795959473,-7.362907886505127,1.1839423179626465
1761237268649391600,1.9413916015625,6.378457069396973,-5.10200834274292,1.537636637687683
1761237268667428600,1.9594287109375,4.84340763092041,-2.213387966156006,-0.3607625365257263
1761237268685466600,1.977466552734375,1.3271617889404297,1.2035408020019531,-2.5940933227539062
1761237268703504400,1.99550439453125,-0.2160849571228027,3.4200401306152344,-4.902928829193115
1761237268721542400,2.01354248046875,2.078993320465088,2.3029770851135254,-4.190991401672363
1761237268739579600,2.03157958984375,3.562656879425049,0.7013983726501465,-0.737586259841919
1761237268757617200,2.0496171875,3.334994316101074,-0.048314094543457,0.5691919922828674
1761237268775654700,2.067654541015625,3.5623526573181152,-0.4620342254638672,0.0109776258468627
1761237268793693700,2.085693603515625,4.390146732330322,-1.5775690078735352,0.3283959031105041
1761237268811730400,2.10373046875,4.680099010467529,-2.68569564819336,1.1314697265625
1761237268829764600,2.1217646484375,2.978477478027344,-2.285095691680908,1.4652385711669922
1761237268847805700,2.1398056640625,1.277790069580078,-1.1379156112670898,1.0494537353515625
1761237268865843700,2.15784375,0.1571569442749023,0.0627493858337402,0.3154173493385315
1761237268883881200,2.175881103515625,-0.7451009750366211,1.4883337020874023,-0.791755735874176
1761237268901919200,2.193919189453125,-1.1797208786010742,2.072610855102539,-1.5440168380737305
1761237268919956700,2.211956787109375,-1.5082659721374512,2.3191637992858887,-2.424114227294922
1761237268937994500,2.229994384765625,-1.6891512870788574,2.482306957244873,-3.1394147872924805
1761237268956031700,2.24803173828125,-1.5253825187683103,2.3182430267333984,-2.814464569091797
1761237268974070000,2.266070068359375,-2.113599300384521,2.1346030235290527,-1.6350204944610596
1761237268992107500,2.284107421875,-2.4600625038146973,1.3788442611694336,-0.1597988605499267
1761237269010145300,2.302145263671875,-2.3655242919921875,0.4054756164550781,0.9735735654830932
1761237269028182500,2.3201826171875,-1.8029823303222656,-0.1738638877868652,1.4101496934890747
1761237269046220800,2.338220703125,-1.4821791648864746,-0.326995849609375,1.2765048742294312
1761237269064246300,2.356246337890625,-1.1874032020568848,-0.0155529975891113,0.5182349681854248
1761237269082296300,2.37429638671875,-1.0705056190490725,0.2784290313720703,-0.1849883794784546
1761237269100333600,2.39233349609375,-0.9030680656433104,0.518183708190918,-0.8248398303985596
1761237269118371300,2.410371337890625,-0.216076374053955,0.7499971389770508,-1.468088150024414
1761237269136408800,2.428408935546875,-0.1017985343933105,1.037630558013916,-1.5662624835968018
1761237269154446600,2.446446533203125,-0.1290421485900879,1.251096248626709,-1.4219143390655518
1761237269172484600,2.464484619140625,0.3427777290344238,1.270455837249756,-1.6346502304077148
1761237269190522400,2.4825224609375,0.9463834762573242,1.2860727310180664,-1.757475733757019
1761237269208560000,2.50056005859375,1.580953598022461,0.9372897148132324,-1.1947946548461914
1761237269226585000,2.518585205078125,1.7296366691589355,0.6393156051635742,-0.7230777740478516
1761237269244635100,2.53663525390625,1.838536262512207,0.7039313316345215,-0.8328839540481567
1761237269262673400,2.55467333984375,1.8328213691711424,0.7691621780395508,-0.6420618295669556
1761237269280710700,2.572710693359375,1.5731616020202637,0.5990719795227051,-0.3629695177078247
1761237269298748200,2.590748046875,1.872745513916016,0.3051114082336426,-0.3045612573623657
1761237269316785700,2.60878564453125,1.9647555351257324,0.3237257003784179,-0.5372602343559265
1761237269334823400,2.626823486328125,1.1267304420471191,0.6944351196289062,-0.6693711280822754
1761237269352861400,2.644861328125,0.0909066200256347,1.0029397010803225,-0.8264430165290833
1761237269370899000,2.66289892578125,-0.3260855674743652,1.020850658416748,-0.8818615078926086
1761237269388937000,2.68093701171875,-0.026346206665039,0.4958148002624511,-0.3349522948265075
1761237269406974500,2.698974365234375,0.5915684700012207,-0.2249746322631836,-0.1878166198730468
1761237269425009000,2.7170087890625,1.0120182037353516,-0.5285930633544922,-0.1616129279136657
1761237269443051000,2.735051025390625,1.2652297019958496,-0.6882333755493164,-0.1310319304466247
1761237269461086200,2.753086181640625,1.05781888961792,-0.6164050102233887,-0.2389740943908691
1761237269479126800,2.771126708984375,0.5912671089172363,-0.4178862571716308,-0.3157082498073578
1761237269497162800,2.789162841796875,0.3697390556335449,-0.386970043182373,0.0538894534111022
1761237269515200300,2.8072001953125,0.3109378814697265,-0.3692469596862793,0.3770546913146972
1761237269533238500,2.825238525390625,0.2824549674987793,-0.0762271881103515,0.126881718635559
1761237269551276000,2.843276123046875,0.8009896278381348,0.1873736381530761,-0.2482418715953827
1761237269569314000,2.86131396484375,1.3570847511291504,0.2733750343322754,-0.5914106965065002
1761237269587351800,2.879351806640625,1.6360559463500977,0.3964505195617676,-0.7348260283470154
1761237269605388800,2.897388916015625,1.983571529388428,0.2659668922424316,-0.7104206085205078
1761237269623427000,2.915427001953125,2.3064208030700684,0.0925393104553222,-0.5901336669921875
1761237269641464600,2.933464599609375,2.539916515350342,-0.0556263923645019,-0.6993111968040466
1761237269659502600,2.951502685546875,2.6095781326293945,-0.089970588684082,-0.8115445375442505
1761237269677539600,2.96953955078125,2.747262954711914,-0.0846376419067382,-0.8765625357627869
1761237269695577300,2.987577392578125,3.2822375297546387,-0.254544734954834,-0.7207235097885132
1761237269713615400,3.005615478515625,4.931637763977051,-0.8284711837768555,-0.7318203449249268
1761237269731656400,3.023656494140625,7.395298480987549,-2.0860280990600586,-0.3971554040908813
1761237269749687000,3.04168701171875,8.908656120300293,-3.5084004402160645,0.4472864270210266
1761237269767728400,3.059728271484375,9.679216384887695,-4.319413661956787,1.112895369529724
1761237269785766400,3.077766357421875,10.319153785705566,-4.689413547515869,1.0292837619781494
1761237269803803600,3.0958037109375,11.869173049926758,-5.022954940795898,0.9661978483200072
1761237269821841400,3.11384130859375,13.845848083496094,-5.962439060211182,0.3211860060691833
1761237269839879200,3.131879150390625,14.26011848449707,-6.731448173522949,-0.088298499584198
1761237269857917200,3.149917236328125,14.00001335144043,-7.726036071777344,0.5082961320877075
1761237269875954700,3.16795458984375,11.705245018005373,-7.216705799102783,1.7289953231811523
1761237269893988900,3.18598876953125,9.779645919799805,-6.194520950317383,1.2160558700561523
1761237269912023800,3.20402392578125,8.498723983764648,-5.079417705535889,0.5588526725769043
1761237269930069200,3.2220693359375,6.65388298034668,-4.0838823318481445,0.0059965848922729
1761237269948107000,3.24010693359375,4.927489280700684,-2.376284599304199,-1.5578281879425049
1761237269966143000,3.25814306640625,5.247886657714844,-1.6373143196105957,-1.8906841278076167
1761237269984180500,3.276180419921875,5.5328874588012695,-1.822709560394287,-1.5025765895843506
1761237270002213400,3.29421337890625,3.66281795501709,-1.7224483489990234,-1.4902594089508057
1761237270020256300,3.31225634765625,0.3752107620239258,-1.838578701019287,-0.5628716349601746
1761237270038293800,3.330293701171875,-2.432545661926269,-3.1167125701904297,0.6061276197433472
1761237270056331800,3.348331787109375,-5.301785469055176,-4.252296447753906,0.4353632926940918
1761237270074369500,3.36636962890625,-9.0667724609375,-3.962137699127197,-0.2478829622268676
1761237270092404000,3.384404052734375,-13.408875465393066,-1.834665417671204,-2.3164217472076416
1761237270110447900,3.40244775390625,-18.30162811279297,2.7150180339813232,-6.664154052734375
1761237270128482300,3.420482421875,-23.075252532958984,0.8668534755706787,-4.787268161773682
1761237270146520000,3.43852001953125,-21.77164459228516,0.6023337244987488,-2.623281478881836
1761237270164539600,3.45653955078125,-18.189617156982425,-0.6337056159973145,-3.067237138748169
1761237270182595300,3.47459521484375,-14.57237434387207,-1.719887375831604,-3.241604804992676
1761237270200632800,3.4926328125,-13.035565376281738,-2.2156715393066406,-2.304443597793579
1761237270218671000,3.510671142578125,-13.222237586975098,-1.843482255935669,-1.4688727855682373
1761237270236708600,3.52870849609375,-13.312664985656738,-0.8903915286064148,-1.561926007270813
1761237270254746000,3.54674609375,-12.726106643676758,0.0469043850898742,-1.9331481456756592
1761237270272783600,3.56478369140625,-11.908004760742188,1.3699891567230225,-2.572071075439453
1761237270290822000,3.58282177734375,-11.403009414672852,2.5992965698242188,-3.150218963623047
1761237270308860000,3.60085986328125,-10.272184371948242,2.769878387451172,-3.021322250366211
1761237270326897000,3.61889697265625,-8.29726791381836,2.296616792678833,-2.436892509460449
1761237270344934700,3.6369345703125,-6.879610538482666,1.8989791870117188,-1.5423922538757324
1761237270362972700,3.65497265625,-5.976576805114746,1.7535252571105957,-0.944124698638916
1761237270381010200,3.67301025390625,-5.859330654144287,1.687726974487305,-0.3229979276657104
1761237270399047700,3.691047607421875,-6.85552978515625,1.8144015073776243,0.3697553873062134
1761237270417085400,3.70908544921875,-7.8305277824401855,1.871772289276123,0.7727245092391968
1761237270435122700,3.727122802734375,-7.984689235687256,1.623031735420227,0.6998010873794556
1761237270453160700,3.74516064453125,-8.35256576538086,1.5282875299453735,1.0198299884796145
1761237270471198200,3.7631982421875,-8.793362617492676,1.540090560913086,0.7972986698150635
1761237270489236000,3.781236083984375,-9.055932998657228,1.7444837093353271,0.0633195638656616
1761237270507274200,3.799274169921875,-8.790678977966309,2.014263868331909,-0.824225902557373
1761237270525298700,3.817298583984375,-7.750007152557373,1.0207700729370115,-0.6199816465377808
1761237270543350500,3.8353505859375,-6.064183235168457,0.8909375667572021,2.044055938720703
1761237270561382100,3.853382080078125,-3.820152759552002,0.423271894454956,2.6844265460968018
1761237270579424800,3.8714248046875,3.990668296813965,-1.200788974761963,1.8106484413146973
1761237270597462500,3.889462646484375,13.660171508789062,-7.851043701171875,2.055044889450073
1761237270615500000,3.9075,20.44893455505371,-12.407499313354492,4.705572128295898
1761237270633537500,3.92553759765625,23.39530563354492,-13.45880126953125,5.698677062988281
1761237270651575300,3.9435751953125,21.322513580322266,-10.681060791015623,2.1258633136749268
1761237270669613800,3.96161376953125,15.822524070739746,-5.711284160614014,-1.5033292770385742
1761237270687651000,3.979651123046875,9.146085739135742,-0.3969569206237793,-4.523764133453369
1761237270705688800,3.997688720703125,3.1022214889526367,2.166750907897949,-5.416485786437988
1761237270723726300,4.015726318359375,-0.2848200798034668,2.2618799209594727,-3.8891100883483887
1761237270741764000,4.03376416015625,-0.567347526550293,1.3041367530822754,-2.5404388904571533
1761237270759797200,4.05179736328125,0.8814520835876465,-0.1166667938232421,-1.054371953010559
1761237270777839600,4.069839599609375,1.9174742698669436,-1.1325130462646484,0.5370447635650635
1761237270795877000,4.087877197265625,2.82290267944336,-1.4210662841796875,0.7327296733856201
1761237270813914600,4.10591455078125,4.008758544921875,-1.734889030456543,0.1444835662841797
1761237270831952100,4.1239521484375,4.6426496505737305,-1.91322660446167,0.173938512802124
1761237270849990000,4.141989990234375,4.057834148406982,-1.460071086883545,0.160794973373413
1761237270868027600,4.160027587890625,2.4628872871398926,-0.7268776893615723,0.2457711696624755
1761237270886064400,4.178064453125,1.578073024749756,-0.2552380561828613,0.1681993007659912
1761237270904104700,4.196104736328125,1.3973383903503418,-0.1854786872863769,0.1022064685821533
1761237270922141200,4.21414111328125,1.420928955078125,-0.381016731262207,0.0969667434692382
1761237270940179000,4.232178955078125,1.7818951606750488,-0.2827577590942383,-0.3636602163314819
1761237270958214700,4.250214599609375,1.4010834693908691,0.2148728370666504,-0.5987342596054077
1761237270976255500,4.26825537109375,0.7049574851989746,0.7242913246154785,-0.8049874305725098
1761237270994292000,4.2862919921875,0.4004302024841308,1.0192193984985352,-0.9621108770370485
1761237271012329500,4.30432958984375,0.1402115821838379,0.9190673828125,-0.8830827474594116
1761237271030355500,4.32235546875,0.3642539978027344,0.5043482780456543,-0.6255558729171753
1761237271048393000,4.34039306640625,0.9699301719665528,-0.0570859909057617,-0.4185323715209961
1761237271066442200,4.358442138671875,0.8902368545532227,-0.3409938812255859,-0.1708301305770874
1761237271084480300,4.376480224609375,0.6561355590820312,-0.5671076774597168,0.1352280378341674
1761237271102518300,4.394518310546875,0.4664173126220703,-0.5557003021240234,0.1621081829071045
1761237271120555500,4.412555419921875,0.4273781776428222,-0.4056501388549804,-0.05463707447052
1761237271138593300,4.43059326171875,0.2223682403564453,-0.0297002792358398,-0.3426051139831543
1761237271156630800,4.448630859375,0.3001246452331543,0.3934130668640136,-0.7769325971603394
1761237271174668500,4.46666845703125,0.6497974395751953,0.6629538536071777,-1.2063943147659302
1761237271192706600,4.48470654296875,0.8483409881591797,0.7343149185180664,-1.1093037128448486
1761237271210743800,4.502743896484375,0.9406137466430664,0.5995116233825684,-0.6772298812866211
1761237271228781600,4.520781494140625,0.8232603073120117,0.636141300201416,-0.3812233209609985
1761237271246819800,4.53881982421875,0.5791568756103516,0.4909472465515136,-0.0920605659484863
1761237271264857000,4.556857177734375,0.0621533393859863,0.3471498489379883,0.3101173639297485
1761237271282894800,4.574894775390625,-0.058903694152832,0.3313732147216797,0.0195398330688476
1761237271300933000,4.59293310546875,-0.0053300857543945,0.3871650695800781,-0.3685982227325439
1761237271318970000,4.61097021484375,-0.2422342300415039,0.439056396484375,-0.1789489388465881
1761237271337007600,4.629007568359375,-0.4446444511413574,0.3550515174865722,-0.0233062505722045
1761237271355045400,4.64704541015625,-0.3747920989990234,0.1836166381835937,0.0465966463088989
1761237271373083000,4.665082763671875,0.1410665512084961,-0.106964111328125,-0.1399435997009277
1761237271391121200,4.68312109375,0.3182592391967773,-0.0939917564392089,-0.2518224716186523
1761237271409158700,4.70115869140625,0.1265983581542968,0.2121977806091308,-0.4218642711639404
1761237271427196200,4.719196044921875,0.1827287673950195,0.5091490745544434,-0.7557334303855896
1761237271445233000,4.73723291015625,0.8770551681518555,0.4045591354370117,-0.778903067111969
1761237271463272400,4.7552724609375,1.472198486328125,0.2948403358459472,-0.7188687920570374
1761237271481310200,4.773310302734375,1.8112907409667969,0.3017487525939941,-0.9030020833015442
1761237271499347000,4.791346923828125,1.5427579879760742,0.3701343536376953,-0.8629531860351562
1761237271517384400,4.809384521484375,0.5547380447387695,0.6731576919555664,-0.629969596862793
1761237271535410200,4.82741015625,-0.1840324401855468,0.8357429504394531,-0.8138058185577393
1761237271553461500,4.84546142578125,-0.5906095504760742,0.8951539993286133,-1.1468650102615356
1761237271571497700,4.863497802734375,-0.8655166625976562,0.8296146392822266,-1.2061582803726196
1761237271589536000,4.881535888671875,-1.0264263153076172,0.758547306060791,-1.0053516626358032
1761237271607573500,4.899573486328125,-0.5555915832519531,0.6015810966491699,-0.8226498365402222
1761237271625610800,4.91761083984375,0.3993606567382812,0.377903938293457,-0.7022563815116882
1761237271643647500,4.9356474609375,1.200425148010254,0.1924691200256347,-0.4645217657089233
1761237271661688000,4.95368798828125,1.3673248291015625,0.1148319244384765,-0.0668318271636962
1761237271679720400,4.971720458984375,1.4276847839355469,0.2127876281738281,0.1892470121383667
1761237271697750000,4.98975,1.579300880432129,0.3146381378173828,-0.0499436855316162
1761237271715799600,5.007799560546875,2.126774787902832,0.1150774955749511,-0.1708773374557495
1761237271733829600,5.02582958984375,2.991602897644043,-0.0615267753601074,-0.1351737976074218
1761237271751875000,5.043875,3.62099838256836,-0.2961230278015136,-0.0377591848373413
1761237271769912600,5.06191259765625,3.766147613525391,-0.5828652381896973,0.1076448559761047
1761237271787950300,5.079950439453125,3.989330291748047,-0.7829403877258301,-0.0458047986030578
1761237271805987800,5.09798779296875,4.094174385070801,-0.8751053810119629,-0.1506789326667785
1761237271824025900,5.11602587890625,4.031418800354004,-0.8787720203399658,0.0260081887245178
1761237271842063400,5.1340634765625,4.517202377319336,-1.2543561458587646,0.2887940406799316
1761237271860096500,5.152096435546875,5.195812225341797,-1.5227417945861816,0.6208109259605408
1761237271878139000,5.170138916015625,5.605345726013184,-1.621792554855347,0.9495927095413208
1761237271896176400,5.18817626953125,6.359630584716797,-1.7265212535858154,0.7359284162521362
1761237271914214000,5.2062138671875,7.53919792175293,-1.8230102062225344,0.1853612661361694
1761237271932251600,5.224251708984375,8.97435188293457,-1.9959564208984373,0.0589238405227661
1761237271950287400,5.242287353515625,9.796150207519531,-2.17431902885437,0.4202407598495483
1761237271968329200,5.2603291015625,10.831153869628906,-2.3793087005615234,0.7595028877258301
1761237271986364700,5.27836474609375,12.476365089416504,-2.898397922515869,0.6633177995681763
1761237272004402400,5.29640234375,11.858820915222168,-2.657686710357666,-0.5494794845581055
1761237272022441200,5.314441162109375,7.728205680847168,-0.9682152271270752,-1.8922011852264404
1761237272040478000,5.33247802734375,2.163130760192871,0.4527331590652466,-2.7925641536712646
1761237272058515700,5.350515625,-2.599417209625244,1.3152884244918823,-2.561427116394043
1761237272076553200,5.36855322265625,-5.077022552490234,1.6625162363052368,-2.151530265808105
1761237272094588000,5.386587890625,-5.599644184112549,1.199532389640808,-3.005167961120605
1761237272112632000,5.404632080078125,-5.897626876831055,0.0474311113357543,-4.238872051239014
1761237272130666500,5.42266650390625,-6.795670986175537,-0.2122871875762939,-3.6447250843048096
1761237272148692200,5.440692138671875,-8.855049133300781,0.1494196653366089,-1.8123774528503416
1761237272166735000,5.458735107421875,-11.831068992614746,1.0233784914016724,-0.142344057559967
1761237272184779800,5.47677978515625,-14.142168045043944,1.6090439558029177,0.8538205623626709
1761237272202812000,5.49481201171875,-15.72802448272705,1.8031063079833984,1.091019630432129
1761237272220854800,5.512854736328125,-15.081568717956545,1.3885972499847412,0.7243372201919556
1761237272238892800,5.530892822265625,-13.261579513549805,0.2352780103683471,0.5374844670295715
1761237272256930000,5.548929931640625,-11.18295192718506,-0.9592270851135254,0.6030779480934143
1761237272274967800,5.5669677734375,-9.411067962646484,-1.4537886381149292,0.6855031251907349
1761237272293005600,5.585005615234375,-8.542671203613281,-1.0581743717193604,0.8160516023635864
1761237272311043000,5.60304296875,-8.68001937866211,-0.1765620708465576,0.6438868641853333
1761237272329081000,5.6210810546875,-9.639777183532717,0.88343346118927,0.4061585068702698
1761237272347103200,5.639103271484375,-10.30823040008545,1.7329331636428833,0.07181978225708
1761237272365155800,5.65715576171875,-10.555720329284668,2.22700309753418,-0.1080124080181121
1761237272383194600,5.675194580078125,-10.57211971282959,2.348697662353516,-0.2713422775268554
1761237272401232000,5.69323193359375,-10.177428245544434,2.1920809745788574,-0.3504265546798706
1761237272419269400,5.711269287109375,-9.461470603942873,1.988827347755432,-0.2493814527988433
1761237272437307100,5.72930712890625,-8.816606521606445,1.749350905418396,-0.0407349094748497
1761237272455344600,5.7473447265625,-8.152615547180176,1.4272708892822266,0.1008924096822738
1761237272473382700,5.765382568359375,-7.211780548095703,0.8322913646697998,0.4874761402606964
1761237272491420000,5.783419921875,-5.8100361824035645,0.3921096324920654,0.7677044868469238
1761237272509458200,5.801458251953125,-2.98260498046875,-0.3779590129852295,1.0657358169555664
1761237272527496200,5.81949609375,-0.6219520568847656,-0.2960739135742187,1.8329381942749023
1761237272545523700,5.837523681640625,0.0396089553833007,1.232162356376648,1.7714128494262695
1761237272563566600,5.855566650390625,0.4995193481445312,3.184760332107544,0.1037045121192932
1761237272581609000,5.87360888671875,3.900554656982422,1.1347193717956543,-1.3746564388275146
1761237272599643100,5.89164306640625,10.557174682617188,-2.702254056930542,-1.756988763809204
1761237272617684200,5.909684326171875,14.113815307617188,-4.8928728103637695,-1.1704682111740112
1761237272635721700,5.9277216796875,13.317831993103027,-5.453410625457764,-0.1106682419776916
1761237272653759200,5.94575927734375,11.146944046020508,-4.911078929901123,-0.1099892258644104
1761237272671797000,5.963796875,7.593941688537598,-2.8679447174072266,-0.1501960754394531
1761237272689830400,5.981830322265625,4.191811561584473,-0.4017391204833984,-1.1015934944152832
1761237272707872800,5.999872802734375,1.0728044509887695,0.5878210067749023,-2.012235403060913
1761237272725910500,6.01791064453125,0.7845249176025391,-0.0833735466003418,-2.321852684020996
1761237272743947000,6.035947021484375,2.3714380264282227,-0.8229551315307617,-1.0709834098815918
1761237272761987600,6.053987548828125,3.1645050048828125,-1.5878372192382812,-0.0981136560440063
1761237272780023600,6.0720234375,3.771136283874512,-1.7190055847167969,0.7942485809326172
1761237272798060800,6.090060791015625,4.724920272827148,-1.892560958862305,0.9020887613296508
1761237272816098800,6.108098876953125,5.33748197555542,-1.7444686889648438,0.8366998434066772
1761237272834136300,6.12613623046875,4.690059185028076,-1.17604398727417,0.6195814609527588
1761237272852174000,6.144174072265625,3.346416473388672,0.0429916381835937,0.023890733718872
1761237272870211000,6.162211181640625,2.1933422088623047,0.8715381622314453,-0.6423330307006836
1761237272888251100,6.180251220703125,1.7880382537841797,1.034684658050537,-0.7129687666893005
1761237272906287600,6.19828759765625,1.9099273681640625,0.6574153900146484,-0.0626313090324401
1761237272924325000,6.2163251953125,2.0363364219665527,0.1628375053405761,0.7650673389434814
1761237272942363000,6.23436279296875,2.482706069946289,-0.2922940254211426,0.870064377784729
1761237272960400000,6.25239990234375,3.1369876861572266,-0.6976852416992188,0.4883042573928833
1761237272978438700,6.270438720703125,3.353774070739746,-0.8746838569641113,0.0645250082015991
1761237272996475600,6.2884755859375,3.036607265472412,-0.787656307220459,-0.3801709413528442
1761237273014511900,6.306511962890625,2.3259382247924805,-0.6648197174072266,-0.8307716846466064
1761237273032551000,6.324551025390625,1.8367862701416016,-0.0966067314147949,-1.2147902250289917
1761237273050588400,6.34258837890625,1.5227127075195312,0.4462261199951172,-1.6814703941345217
1761237273068626400,6.36062646484375,1.5602731704711914,0.4177889823913574,-1.893446922302246
1761237273086664200,6.378664306640625,1.3518457412719729,0.0621213912963867,-1.257989764213562
1761237273104702000,6.396701904296875,0.5122823715209961,-0.0526633262634277,-0.6921620965003967
1761237273122739700,6.41473974609375,-0.1865949630737304,-0.1805262565612793,-0.4851765632629394
1761237273140777200,6.432777099609375,-0.6186380386352539,-0.2196292877197265,-0.2943263053894043
1761237273158815000,6.45081494140625,-0.6893434524536133,-0.3008918762207031,-0.1185575723648071
1761237273176852700,6.468852783203125,-0.6848812103271484,-0.6496119499206543,0.0266517400741577
1761237273194890500,6.486890380859375,-0.9046363830566406,-0.749629020690918,0.2028442621231079
1761237273212927700,6.504927734375,-1.463423252105713,-0.325080394744873,0.0174307823181152
1761237273230965800,6.5229658203125,-1.848175048828125,0.3667201995849609,-0.4267749190330505
1761237273249003800,6.541003662109375,-1.700141429901123,0.7909948825836182,-0.9426921010017396
1761237273267041300,6.559041259765625,-1.294477939605713,1.0133299827575684,-1.1547093391418457
1761237273285078500,6.57707861328125,-0.6726598739624023,0.7822198867797852,-0.9205772876739502
1761237273303116300,6.5951162109375,0.0227336883544921,0.4352550506591797,-0.2826628684997558
1761237273321154000,6.613154052734375,0.1107921600341796,0.4021048545837402,0.013677954673767
1761237273339191800,6.63119189453125,-0.2299346923828125,0.7966532707214355,0.0003401041030883
1761237273357229300,6.649229248046875,-0.7380275726318359,1.19171142578125,-0.180888295173645
1761237273375267000,6.66726708984375,-0.7372970581054688,1.2113728523254397,-0.4048167467117309
1761237273393305600,6.6853056640625,-0.4836301803588867,1.0543737411499023,-0.6671673059463501
1761237273411342600,6.703342529296875,-0.445077896118164,1.001593828201294,-0.7675246596336365
1761237273429380400,6.72138037109375,-0.6546125411987305,0.9983789920806884,-0.6444332003593445
1761237273447418000,6.739418212890625,-0.9069843292236328,1.0083560943603516,-0.4183273315429687
1761237273465455000,6.757455078125,-0.952122688293457,1.1334824562072754,-0.4107990264892578
1761237273483494100,6.775494140625,-0.7146110534667969,1.0730535984039309,-0.5834167003631592
1761237273501531000,6.79353076171875,-0.0632925033569336,0.8339014053344727,-0.585227370262146
1761237273519556600,6.811556640625,0.6127719879150391,0.6185588836669922,-0.6041438579559326
1761237273537594600,6.8295947265625,1.003875732421875,0.697291374206543,-0.7370983958244324
1761237273555643000,6.847642822265625,1.0222721099853516,0.6473889350891113,-0.8571599721908569
1761237273573681400,6.865681396484375,0.7538394927978516,0.6283388137817383,-0.9230825901031494
1761237273591721200,6.88372119140625,0.559117317199707,0.4202933311462402,-0.643359899520874
1761237273609753900,6.90175390625,0.3089437484741211,0.271064281463623,-0.2374526262283325
1761237273627795200,6.919795166015625,0.2740325927734375,0.3223576545715332,0.0004726648330688
1761237273645832700,6.937832763671875,0.6126489639282227,0.2381792068481445,0.3649072647094726
1761237273663870700,6.95587060546875,1.7426042556762695,-0.0358028411865234,0.5230206251144409
1761237273681908000,6.973907958984375,3.104679107666016,-0.1938800811767578,0.4680200815200805
1761237273699934500,6.9919345703125,4.384377479553223,-0.3257498741149902,0.2101062536239624
1761237273717983500,7.0099833984375,5.329511642456055,-0.337287425994873,0.3176473379135132
1761237273736021500,7.028021484375,6.197162628173828,-0.4292201995849609,0.5557082891464233
1761237273754058800,7.046058837890625,7.233464241027832,-0.6007256507873535,0.6647573709487915
1761237273772096500,7.064096435546875,7.311067581176758,-0.5469450950622559,0.5604504346847534
1761237273790133500,7.082133544921875,6.750725746154785,-0.3016400337219238,0.3099184036254883
1761237273808172000,7.100172119140625,7.232558250427246,-0.7492356300354004,0.4722194671630859
1761237273826209800,7.118209716796875,9.129776000976562,-1.7439541816711426,0.8765629529953003
1761237273844247600,7.13624755859375,9.46294116973877,-2.2771029472351074,1.634617567062378
1761237273862286000,7.1542861328125,9.466204643249512,-2.4023261070251465,2.613342761993408
1761237273880322300,7.172322265625,9.690013885498049,-2.2391040325164795,3.3246777057647705
1761237273898361000,7.190361083984375,10.112747192382812,-1.9737098217010496,3.8319859504699703
1761237273916398000,7.208398193359375,11.277724266052246,-2.520936965942383,3.732588768005371
1761237273934433300,7.226433349609375,11.716092109680176,-3.1241626739501958,2.764656543731689
1761237273952471600,7.244471435546875,10.342482566833496,-2.927915573120117,0.6785972118377686
1761237273970514700,7.2625146484375,7.975831985473633,-2.4633469581604004,-2.246490240097046
1761237273988548900,7.280548828125,3.3902406692504883,1.6620410680770874,-6.476779937744141
1761237274006569000,7.29856884765625,-1.128643035888672,2.1496715545654297,-10.45631217956543
1761237274024624000,7.3166240234375,-4.716286659240723,-0.868962287902832,-7.489397048950195
1761237274042662100,7.334662109375,-8.38090991973877,-1.3063279390335083,-2.8553361892700195
1761237274060700000,7.352699951171875,-12.16303825378418,-2.084998846054077,0.5771884918212891
1761237274078737200,7.370737060546875,-14.58351707458496,-2.971723318099976,1.890301823616028
1761237274096776000,7.38877587890625,-15.636269569396973,-2.7127127647399902,2.3764853477478027
1761237274114812000,7.40681201171875,-15.91476821899414,-2.084003448486328,2.3614327907562256
1761237274132850200,7.42485009765625,-14.824617385864258,-1.4633132219314575,1.5544298887252808
1761237274150888200,7.44288818359375,-14.19045639038086,-2.196382761001587,0.2277233600616455
1761237274168917000,7.4609169921875,-13.805181503295898,-1.930079460144043,-1.1304850578308103
1761237274186963500,7.47896337890625,-12.897047996520996,-2.222334861755371,-1.2790154218673706
1761237274205001200,7.497001220703125,-11.793750762939451,-3.0397181510925293,-1.531622052192688
1761237274223039000,7.5150390625,-10.743351936340332,-3.2899110317230225,-1.897613286972046
1761237274241076200,7.533076171875,-10.137078285217283,-3.005349636077881,-2.030669927597046
1761237274259114200,7.5511142578125,-9.885537147521973,-2.4791994094848637,-2.258220672607422
1761237274277151700,7.56915185546875,-9.775538444519045,-1.8545438051223757,-2.1532273292541504
1761237274295189200,7.587189208984375,-9.68957233428955,-1.312960863113403,-2.2285079956054688
1761237274313227800,7.605227783203125,-9.304689407348633,-0.7649045586585999,-2.224238395690918
1761237274331264800,7.6232646484375,-9.256117820739746,-0.600922703742981,-2.131150722503662
1761237274349302800,7.641302734375,-9.335185050964355,-0.5689750909805298,-1.848395109176636
1761237274367328500,7.65932861328125,-8.734699249267578,-0.275203138589859,-1.6282882690429688
1761237274385378000,7.6773779296875,-8.07273006439209,-0.1370078921318054,-1.311653733253479
1761237274403415800,7.695415771484375,-6.867461204528809,-0.401718258857727,-0.551267147064209
1761237274421453600,7.71345361328125,-5.51655912399292,-0.1614531278610229,0.5906658172607422
1761237274439490800,7.73149072265625,-3.455519199371338,2.664614200592041,0.0743274688720703
1761237274457529000,7.749529052734375,-4.224153518676758,3.523910522460937,-1.0028470754623413
1761237274475565800,7.76756591796875,-1.358952522277832,1.4845526218414309,-0.3338525295257568
1761237274493604600,7.7856044921875,6.949246406555176,-2.412115812301636,1.5228934288024902
1761237274511641900,7.803641845703125,13.184015274047852,-5.091588973999023,1.3053761720657349
1761237274529675800,7.82167578125,15.090063095092772,-6.113653182983398,1.350709080696106
1761237274547717400,7.83971728515625,14.96589183807373,-6.269715309143066,2.118283271789551
1761237274565742000,7.8577421875,13.9779052734375,-6.132808685302734,1.45650053024292
1761237274583794000,7.8757939453125,11.34756088256836,-4.419471263885498,0.6954553127288818
1761237274601830400,7.893830322265625,6.656547546386719,1.0872838497161863,-1.6634674072265625
1761237274619867600,7.91186767578125,2.758072853088379,3.231321334838867,-4.490924835205078
1761237274637905700,7.92990576171875,1.1641836166381836,2.177199125289917,-4.389625549316406
1761237274655943000,7.94794287109375,1.8603086471557615,1.0127620697021484,-2.350726842880249
1761237274673981000,7.96598095703125,2.2493553161621094,0.2422046661376953,-0.991797924041748
1761237274692018700,7.984018798828125,2.8524065017700195,-0.1218223571777343,0.4997488260269165
1761237274710055200,8.00205517578125,3.394862174987793,-0.6243243217468262,1.793613076210022
1761237274728095500,8.020095458984375,3.4587693214416504,-0.7520151138305664,2.560554265975952
1761237274746131700,8.038131591796875,2.907108783721924,-0.5801777839660645,2.5584216117858887
1761237274764168200,8.056168212890626,2.136125087738037,-0.0546555519104003,2.1002330780029297
1761237274782209000,8.074208984375,1.7890172004699707,0.1887378692626953,1.7832159996032717
1761237274800239000,8.092239013671875,1.8279738426208496,0.0948152542114257,1.6391111612319946
1761237274818284000,8.110283935546875,2.134146213531494,-0.3451991081237793,1.6075642108917236
1761237274836320000,8.128320068359375,2.174780368804932,-0.2870779037475586,1.5495039224624634
1761237274854357200,8.146357177734375,2.01937198638916,-0.1780734062194824,1.0714448690414429
1761237274872383200,8.16438330078125,1.9469084739685056,-0.0446095466613769,0.0815440416336059
1761237274890433300,8.182433349609376,1.946739196777344,-0.102177619934082,-0.8764064311981201
1761237274908471300,8.20047119140625,1.789055347442627,-0.1803154945373535,-1.6697218418121338
1761237274926508800,8.2185087890625,1.3222131729125977,-0.0799436569213867,-2.1525745391845703
1761237274944546300,8.23654638671875,0.8257040977478027,0.0179829597473144,-2.4183123111724854
1761237274962584300,8.254584228515625,0.3951325416564941,-0.101348876953125,-2.0065367221832275
1761237274980621800,8.272621826171875,0.199066162109375,-0.1890473365783691,-1.5167759656906128
1761237274998659600,8.29065966796875,0.078770637512207,-0.1881270408630371,-1.246784806251526
1761237275016697000,8.308697021484376,0.0833239555358886,-0.2389426231384277,-0.9484156370162964
1761237275034731300,8.326731201171874,0.0656270980834961,-0.3203921318054199,-0.5510821342468262
1761237275052772400,8.3447724609375,0.1718587875366211,-0.1975798606872558,-0.400040864944458
1761237275070810400,8.362810302734376,0.3465504646301269,-0.1062831878662109,-0.3660992383956909
1761237275088847600,8.38084765625,0.1872839927673339,0.1568026542663574,-0.2316410541534423
1761237275106885600,8.3988857421875,0.1374540328979492,0.3140087127685547,-0.1793117523193359
1761237275124923100,8.416923095703124,0.1872854232788086,0.3928508758544922,-0.2547035217285156
1761237275142961000,8.4349609375,0.5867905616760254,0.2776637077331543,-0.2250851392745971
1761237275160998700,8.45299853515625,0.7082414627075195,0.2804498672485351,-0.1621404886245727
1761237275179036400,8.471036376953125,0.4887475967407226,0.3512468338012695,-0.0942475795745849
1761237275197074000,8.489073974609376,0.0724577903747558,0.3993434906005859,0.0037504434585571
1761237275215112200,8.5071123046875,-0.0429530143737793,0.3309803009033203,0.1871534585952758
1761237275233149200,8.525149169921875,0.0944352149963378,0.2172398567199707,0.1348882913589477
1761237275251186700,8.543186767578124,0.2775783538818359,0.1870336532592773,-0.0952882766723632
1761237275269225000,8.561224853515625,0.2911643981933594,0.2619609832763672,-0.2138944864273071
1761237275287262500,8.579262451171875,0.3794741630554199,0.3050041198730469,-0.2769984006881714
1761237275305299500,8.597299560546874,0.5617766380310059,0.2085933685302734,-0.3870584964752197
1761237275323338200,8.615338134765626,0.7838258743286133,0.1588668823242187,-0.5311778783798218
1761237275341375500,8.63337548828125,0.8585481643676758,0.1148786544799804,-0.6149563789367676
1761237275359413500,8.65141357421875,0.8923277854919434,0.0227947235107421,-0.635231614112854
1761237275377451000,8.669450927734376,0.9072265625,-0.1303186416625976,-0.5563615560531616
1761237275395488500,8.687488525390625,0.8236503601074219,-0.1845684051513672,-0.3555519580841064
1761237275413526000,8.705526123046875,0.5370030403137207,-0.0861201286315918,-0.4109655618667602
1761237275431562800,8.723562744140626,0.3093376159667969,0.1456713676452636,-0.3917557001113891
1761237275449603000,8.74160302734375,0.5151195526123047,0.0766687393188476,-0.4390081167221069
1761237275467639300,8.759639404296875,0.9256620407104492,-0.0193924903869628,-0.3975603580474853
1761237275485676800,8.7776767578125,1.1746206283569336,-0.1025910377502441,-0.3796943426132202
1761237275503714800,8.79571484375,1.5645198822021484,-0.2765588760375976,-0.3086632490158081
1761237275521752600,8.813752685546875,1.9610795974731443,-0.5950469970703125,-0.0408993959426879
1761237275539781400,8.831781494140625,2.2771167755126958,-0.7361044883728027,0.034223198890686
1761237275557827600,8.84982763671875,2.8549013137817383,-1.010599136352539,0.1209735870361328
1761237275575854800,8.867854736328125,3.5525379180908203,-1.2648119926452637,0.4204765558242798
1761237275593891800,8.885891845703124,4.050222396850586,-1.420804500579834,0.512363076210022
1761237275611940600,8.903940673828124,4.607863426208496,-1.5085077285766602,0.427392840385437
1761237275629974000,8.92197412109375,5.330256462097168,-1.6700067520141602,0.1131218671798706
1761237275648016600,8.9400166015625,6.44581413269043,-2.061920166015625,-0.0905505418777465
1761237275666054000,8.958053955078125,7.959961891174316,-2.7009520530700684,-0.0741537809371948
