time,seconds_elapsed,z,y,x
1761237200936591000,0.109591064453125,0.8521569967269897,-0.7577783465385437,-0.8055785298347473
1761237200954776000,0.127776123046875,1.2217304706573486,-1.04289972782135,-1.378722906112671
1761237200972810500,0.145810546875,1.4358386993408203,-1.080162525177002,-1.931708574295044
1761237200990848000,0.163847900390625,1.4537066221237185,-1.956448674201965,-2.08442497253418
1761237201008885800,0.1818857421875,1.5781704187393188,-2.618168354034424,-1.6759088039398191
1761237201026923500,0.199923583984375,1.224173903465271,-0.8629998564720154,-0.6675229668617249
1761237201044961000,0.2179609375,0.1102611795067787,0.7147123217582703,0.5221370458602905
1761237201062999300,0.235999267578125,-0.6325509548187256,0.9059131741523744,1.7922786474227903
1761237201081036500,0.25403662109375,-0.5320636034011841,0.4124867618083954,2.872593879699707
1761237201099074300,0.27207421875,-0.4983133375644684,-0.3361285924911499,3.0109548568725586
1761237201117111800,0.29011181640625,-1.0641272068023682,-2.7545440196990967,1.2173017263412476
1761237201135149800,0.30814990234375,-0.7809911966323853,-2.7644705772399902,0.8535314798355103
1761237201153187600,0.3261875,-0.2782491147518158,-2.253481864929199,2.0555615425109863
1761237201171225600,0.3442255859375,0.1175915598869323,-0.9207266569137572,2.869539499282837
1761237201189263400,0.362263427734375,0.2935207486152649,0.4860960245132446,3.186731338500977
1761237201207301000,0.380301025390625,0.0591012127697467,0.8463537693023682,3.512017011642456
1761237201225338600,0.398338623046875,-0.2741257846355438,0.3069597780704498,3.556304693222046
1761237201243365400,0.416365478515625,-0.7464773058891296,-0.156686931848526,2.9104673862457275
1761237201261414400,0.434414306640625,-0.660192608833313,-0.2241875380277633,1.9283488988876345
1761237201279452000,0.452451904296875,-0.2735149264335632,0.0784961804747581,1.1838568449020386
1761237201297489700,0.47048974609375,-0.1395827084779739,0.0355829000473022,0.4731151461601257
1761237201315527200,0.488527099609375,-0.1123992055654525,0.0838412567973136,-0.242513507604599
1761237201333565000,0.50656494140625,-0.4821254014968872,0.062460970133543,-0.8947648406028748
1761237201351602200,0.524602294921875,-0.7756461501121521,-0.1976149082183838,-1.4141530990600586
1761237201369641700,0.542641845703125,-0.6989825367927551,0.178525373339653,-1.6097826957702637
1761237201387678500,0.560678466796875,-0.3949243724346161,0.5633704662322998,-1.3979650735855105
1761237201405716500,0.578716552734375,-0.133474051952362,0.3921754956245422,-0.9387471675872804
1761237201423754000,0.59675390625,-0.085062988102436,-0.0794124826788902,-0.3258966207504272
1761237201441793000,0.61479296875,-0.0473420582711696,-0.5734497308731079,0.2310597747564315
1761237201459830500,0.63283056640625,-0.098502017557621,-0.8973610401153564,0.4686863720417022
1761237201477868300,0.650868408203125,-0.1166752651333808,-0.8726209998130798,0.2202169150114059
1761237201495905500,0.668905517578125,-0.1328631937503814,-0.6846272349357605,-0.4625777006149292
1761237201513940000,0.68693994140625,-0.1316414624452591,-0.5710062980651855,-1.444390892982483
1761237201531981600,0.704981689453125,-0.0154243474826216,-0.4576907753944397,-2.162921190261841
1761237201550019600,0.72301953125,0.1983784884214401,-0.3486513495445251,-2.465146780014038
1761237201568057000,0.74105712890625,0.4410447180271148,-0.3984368443489074,-2.4408648014068604
1761237201586094800,0.7590947265625,0.7086036801338196,-0.266642689704895,-1.8333593606948853
1761237201604132900,0.7771328125,0.717613935470581,-0.4747950136661529,-1.3431400060653689
1761237201622170400,0.79517041015625,0.6075055003166199,-0.8468119502067566,-1.2153164148330688
1761237201640208100,0.8132080078125,0.6050620079040527,-1.10444438457489,-1.2334896326065063
1761237201658246100,0.83124609375,0.6046038866043091,-1.2864822149276731,-1.1669052839279177
1761237201676283600,0.84928369140625,0.4448626041412353,-1.2454015016555786,-0.7831292152404785
1761237201694321200,0.867321044921875,0.270766019821167,-0.9721920490264891,-0.1872301995754242
1761237201712358700,0.885358642578125,0.1415680199861526,-0.6152940392494202,0.3701843321323395
1761237201730397000,0.90339697265625,-0.048105638474226,-0.4398229718208313,0.6575964093208313
1761237201748423400,0.92142333984375,-0.2035708427429199,-0.4106541574001312,0.7163922190666199
1761237201766472700,0.93947265625,-0.2794708609580993,-0.5141957998275757,0.6737843751907349
1761237201784510200,0.95751025390625,-0.4314235746860504,-0.1927279829978943,0.531758189201355
1761237201802548000,0.9755478515625,-0.6055201888084412,0.4642575979232788,0.4581489264965057
1761237201820585500,0.99358544921875,-0.6685920357704163,1.108262300491333,0.3723223805427551
1761237201838622000,1.0116220703125,-0.3911064863204956,1.6242907047271729,-0.0296269636601209
1761237201856662800,1.029662841796875,0.0303905457258224,1.6768250465393066,-0.5911648273468018
1761237201874699000,1.047698974609375,0.4108068645000458,1.292285442352295,0.034972034394741
1761237201892736300,1.065736328125,0.4838052690029144,1.078940749168396,1.5664112567901611
1761237201910767600,1.083767578125,0.4599815309047699,1.182482361793518,1.8194621801376345
1761237201928812000,1.10181201171875,-0.0597120784223079,1.1757628917694092,0.0536034256219863
1761237201946837000,1.1198369140625,-0.5230533480644226,0.6592763066291809,-0.7635815739631653
1761237201964881000,1.137880859375,-0.2664899528026581,-0.0079412478953599,0.4234823286533355
1761237201982927400,1.15592724609375,0.7699956297874451,0.173791155219078,2.143373489379883
1761237202000962800,1.173962890625,1.1566733121871948,0.0413861200213432,3.4180965423583984
1761237202019000800,1.192000732421875,0.5974262356758118,-0.0410806871950626,4.608214855194092
1761237202037038600,1.21003857421875,0.2075414657592773,0.7139487266540527,4.906164169311523
1761237202055076600,1.22807666015625,0.0222965814173221,1.2214250564575195,4.132961750030518
1761237202073114000,1.246114013671875,-0.3526219725608825,0.8048149347305298,3.2314772605896
1761237202091152000,1.26415185546875,-0.5668829679489136,0.1539380401372909,2.605034828186035
1761237202109189600,1.282189697265625,-0.5229006409645081,-0.079259768128395,1.9413297176361084
1761237202127226400,1.300226318359375,-0.5484042763710022,-0.3553708493709564,1.0673342943191528
1761237202145266400,1.318266357421875,-0.4763221740722656,-0.5949827432632446,0.2790127098560333
1761237202163302700,1.336302734375,-0.2909245789051056,-1.138500094413757,-0.631481945514679
1761237202181340700,1.354340576171875,-0.2035708427429199,-1.580308437347412,-1.417970895767212
1761237202199378000,1.3723779296875,-0.1108720451593399,-1.6740761995315552,-1.82404363155365
1761237202217416400,1.39041650390625,-0.1759291887283325,-1.576948642730713,-1.7854063510894775
1761237202235454200,1.4084541015625,-0.4202753007411957,-1.1433870792388916,-1.365589261054993
1761237202253491500,1.426491455078125,-0.5934556126594543,-0.4434881806373596,-0.9027060866355896
1761237202271529700,1.44452978515625,-0.4532620012760162,0.0239764600992202,-0.4219551682472229
1761237202289567200,1.462567138671875,-0.2426662147045135,-0.1881465017795562,0.0160352122038602
1761237202307603500,1.480603515625,-0.0193949714303016,-0.8845328688621521,0.3207042515277862
1761237202325644300,1.498644287109375,0.1626428663730621,-1.676672339439392,0.4074471294879913
1761237202343679000,1.516678955078125,0.4692972302436828,-1.9304869174957275,-0.1301143020391464
1761237202361719300,1.53471923828125,0.685390830039978,-1.6960673332214355,-1.1606439352035522
1761237202379755800,1.552755859375,0.7215845584869385,-1.2680035829544067,-2.250580310821533
1761237202397785000,1.57078515625,0.6010913848876953,-0.879493236541748,-3.018132448196411
1761237202415820800,1.58882080078125,0.5224425196647644,-0.5910121202468872,-3.0326404571533203
1761237202433865700,1.60686572265625,0.5766568183898926,-0.4273002445697784,-2.3828325271606445
1761237202451906800,1.62490673828125,0.6734789609909058,-0.4152356386184692,-1.621999979019165
1761237202469944800,1.64294482421875,0.7756461501121521,-0.4294382631778717,-0.8602510094642639
1761237202487982800,1.66098291015625,0.759305477142334,-0.6056728959083557,-0.3263547718524933
1761237202506018300,1.679018310546875,0.630871057510376,-0.6870706677436829,-0.0099265603348612
1761237202524060000,1.697059814453125,0.4697553813457489,-0.5621487498283386,0.0975857228040695
1761237202542096000,1.715095947265625,0.3637702465057373,-0.3031418919563293,0.0167987942695617
1761237202560127700,1.733127685546875,0.275347501039505,-0.0403171069920063,0.024892758578062
1761237202578172000,1.751171875,0.2174680233001709,0.140957161784172,0.2035708427429199
1761237202596209000,1.769208984375,0.0655152946710586,0.209526777267456,0.4413501322269439
1761237202614246700,1.78724658203125,-0.1385136991739273,0.0939205288887023,0.6910412907600403
1761237202632285000,1.805284912109375,-0.3434589803218841,0.0575740486383438,0.8126034736633301
1761237202650322200,1.823322265625,-0.531147301197052,0.2684752643108368,0.7586946487426758
1761237202668360000,1.84135986328125,-0.6296493411064148,0.6664539575576782,0.442266434431076
1761237202686397700,1.859397705078125,-0.5528330206871033,1.3605495691299438,-0.0517708286643028
1761237202704436000,1.87743603515625,-0.3350595831871032,2.323273181915283,-0.4792237877845764
1761237202722473200,1.89547314453125,-0.1365283876657486,3.0298917293548584,-0.5919284224510193
1761237202740511200,1.91351123046875,-0.2904664278030395,2.6707029342651367,-0.6653849482536316
1761237202758548700,1.931548828125,-0.7903069257736206,1.131627917289734,-0.788016140460968
1761237202776586800,1.949586669921875,-0.8115344643592834,0.5021312236785889,-0.7038694620132446
1761237202794612000,1.967612060546875,-0.2277000248432159,1.441641926765442,-1.1841622591018677
1761237202812656400,1.985656494140625,0.1203404515981674,1.5696182250976562,-1.362382173538208
1761237202830701000,2.003701171875,0.2451096773147583,0.8982773423194885,0.2260201424360275
1761237202848737500,2.021737548828125,0.608727216720581,1.183704137802124,2.6615397930145264
1761237202866775000,2.039775146484375,1.2848023176193235,1.6830865144729614,3.8650970458984375
1761237202884812800,2.057812744140625,1.4537066221237185,1.6273449659347534,3.707493782043457
1761237202902851000,2.07585107421875,0.9947940707206726,0.9570731520652772,2.954907894134521
1761237202920888800,2.093888916015625,0.3839288055896759,0.4384485185146332,2.065640926361084
1761237202938926000,2.111926025390625,0.00167987938039,0.4634940028190613,0.984867513179779
1761237202956962800,2.129962890625,-0.0879645943641662,0.4334088861942291,-0.1547016203403473
1761237202975000600,2.14800048828125,-0.1441642045974731,0.1421788930892944,-1.003040790557861
1761237202993038600,2.16603857421875,-0.1896736621856689,-0.1905899494886398,-1.3862059116363523
1761237203011076400,2.184076416015625,-0.2063197344541549,-0.1320996135473251,-1.1734721660614014
1761237203029114000,2.202114013671875,-0.1857030391693115,0.2872593700885772,-0.6116288304328918
1761237203047151900,2.22015185546875,-0.2400700449943542,0.6524040699005127,-0.052381694316864
1761237203065189400,2.238189453125,-0.1652390509843826,0.7475463151931763,0.4143193662166595
1761237203083227400,2.256227294921875,-0.0409279726445674,0.588874101638794,0.784503698348999
1761237203101265000,2.274264892578125,0.0697913542389869,-0.0641408488154411,0.835969090461731
1761237203119303000,2.292302978515625,0.1704314053058624,-0.8211556077003479,0.5426010489463806
1761237203137340400,2.31034033203125,0.0777326002717018,-1.354135513305664,-0.275805652141571
1761237203155378000,2.3283779296875,-0.1438587605953216,-1.4286611080169678,-1.6059647798538208
1761237203173416000,2.346416015625,-0.4305072724819183,-1.0693196058273315,-2.830138683319092
1761237203191454000,2.364453857421875,-0.6372851729393005,-0.5765040516853333,-3.43840765953064
1761237203209491700,2.38249169921875,-0.5239696502685547,-0.1615738570690155,-3.377473831176758
1761237203227529500,2.400529541015625,-0.2725986242294311,-0.1214094683527946,-2.8521299362182617
1761237203245567200,2.418567138671875,-0.1530217379331588,-0.4867068827152252,-2.3605360984802246
1761237203263604700,2.436604736328125,0.0429132841527462,-1.208444118499756,-2.0790798664093018
1761237203281640000,2.454639892578125,0.2052507251501083,-2.068237066268921,-2.143984317779541
1761237203299682800,2.472682861328125,0.275958389043808,-2.420858860015869,-1.9075794219970703
1761237203317718000,2.490718017578125,0.2577851414680481,-2.384207010269165,-1.3006848096847534
1761237203335755800,2.508755859375,0.1027780771255493,-2.10809588432312,-0.7053966522216797
1761237203353793500,2.52679345703125,-0.1130100712180137,-1.9023871421813965,-0.3979786932468414
1761237203371830500,2.54483056640625,-0.19288070499897,-1.831526756286621,-0.427452951669693
1761237203389870600,2.56287060546875,-0.221591368317604,-1.7747162580490112,-0.3749185502529144
1761237203407907000,2.580906982421875,-0.3697261810302734,-1.2246321439743042,0.1479821056127548
1761237203425942300,2.5989423828125,-0.6346889734268188,-0.0462730415165424,0.9508117437362672
1761237203443984000,2.61698388671875,-0.8078693151473999,1.0760390758514404,1.524566888809204
1761237203462021000,2.635021240234375,-0.7429648637771606,1.9187277555465696,1.510058879852295
1761237203480057900,2.653057861328125,-0.7701483368873596,2.1004600524902344,1.1829406023025513
1761237203498095400,2.671095458984375,-0.7283040881156921,1.238071084022522,1.3837624788284302
1761237203516121900,2.689121826171875,-0.3298672437667846,0.4738787114620209,1.995696783065796
1761237203534171000,2.7071708984375,-0.2162462919950485,0.503963828086853,2.353511095046997
1761237203552209000,2.725208984375,-0.5285511612892151,0.94516122341156,2.699260711669922
1761237203570247000,2.743246826171875,-0.5539020895957947,2.42055344581604,3.568216562271118
1761237203588284700,2.76128466796875,0.221133217215538,3.4486396312713623,4.811938285827637
1761237203606322200,2.779322265625,1.162629246711731,2.475989580154419,5.496870994567871
1761237203624359700,2.797359619140625,1.2261592149734497,0.0910189226269722,5.617669582366943
1761237203642398000,2.81539794921875,0.9572258591651917,-1.61741840839386,5.486486434936523
1761237203660435700,2.833435791015625,0.868803083896637,-1.6893478631973269,5.004818916320801
1761237203678473000,2.851472900390625,0.7548767328262329,-0.6285803318023682,3.964057207107544
1761237203696505900,2.869505859375,0.4667010605335235,0.4622722864151001,2.650696992874145
1761237203714548500,2.887548583984375,0.2362521290779113,1.0190759897232056,1.015105366706848
1761237203732586500,2.90558642578125,0.4011857509613037,1.521665334701538,-0.513126790523529
1761237203750624300,2.923624267578125,0.4847215712070465,1.672701716423035,-1.372156023979187
1761237203768661800,2.941661865234375,0.6641632318496704,1.4726433753967283,-1.3115277290344238
1761237203786699500,2.959699462890625,0.7948883771896362,1.231046199798584,-0.7283040881156921
1761237203804737000,2.977737060546875,0.717613935470581,0.7967209815979004,-0.28557950258255
1761237203822775000,2.995775146484375,0.5551238059997559,0.2971859276294708,-0.171500414609909
1761237203840813000,3.01381298828125,0.3543018400669098,-0.1510364264249801,-0.4242459237575531
1761237203858850800,3.031850830078125,0.2399173229932785,-0.437684953212738,-1.0093021392822266
1761237203876888600,3.049888671875,0.235488548874855,-0.4065308272838592,-1.704466700553894
1761237203894926000,3.067926025390625,0.1272126883268356,-0.0642935633659362,-2.3218986988067627
1761237203912964000,3.085964111328125,-0.0826195254921913,0.399658590555191,-2.8484647274017334
1761237203931003600,3.104003662109375,-0.3824016451835632,0.7554876208305359,-3.4177911281585693
1761237203949035000,3.122034912109375,-0.727082371711731,0.7912232279777527,-4.148386001586914
1761237203967080000,3.140079833984375,-0.8796459436416626,0.394618958234787,-4.82858419418335
1761237203985115000,3.158114990234375,-0.8381071090698242,-0.1711949855089187,-5.1379876136779785
1761237204003152600,3.176152587890625,-0.4619668424129486,-0.8008443117141724,-4.496426582336426
1761237204021190400,3.1941904296875,-0.0510072484612464,-1.1172724962234497,-3.3397529125213623
1761237204039228400,3.212228515625,0.182648703455925,-1.3869695663452148,-2.3576343059539795
1761237204057266000,3.230265869140625,0.289244681596756,-1.31916344165802,-1.709811806678772
1761237204075304000,3.248303955078125,0.4129449129104614,-0.6939429044723511,-1.5515977144241333
1761237204093341700,3.266341796875,0.6659958362579346,0.2109012305736541,-1.6310101747512815
1761237204111376600,3.284376708984375,0.9888381361961364,0.9230173826217652,-1.659568190574646
1761237204129419000,3.3024189453125,1.0103710889816284,0.8159632682800293,-1.4708107709884644
1761237204147456000,3.3204560546875,0.6556110978126526,-0.2700024247169494,-0.8197811841964722
1761237204165492500,3.338492431640625,0.3005456924438476,-1.424079656600952,-0.1027780771255493
1761237204183530000,3.356530029296875,0.20906862616539,-1.628719449043274,0.3295617997646332
1761237204201568500,3.374568603515625,0.2270891517400741,-0.542142927646637,0.5621487498283386
1761237204219591700,3.392591796875,0.1188132911920547,1.1705704927444458,0.7924449443817139
1761237204237643800,3.410643798828125,-0.0226020142436027,2.096184015274048,0.1873829066753387
1761237204255681300,3.428681396484375,-0.3083342313766479,0.4198171496391296,-1.1577423810958862
1761237204273719000,3.446718994140625,-0.901637077331543,-1.9494236707687376,-0.6914994716644287
1761237204291756500,3.464756591796875,-1.0106765031814575,-2.147496700286865,1.7165313959121704
1761237204309794800,3.482794921875,-0.7177666425704956,-1.0348057746887207,3.4848334789276123
1761237204327832300,3.500832275390625,-0.5815436840057373,0.2567161321640014,4.640285015106201
1761237204345870600,3.51887060546875,-0.9665415287017822,0.3176499307155609,5.736940860748291
1761237204363907800,3.536907958984375,-1.2391401529312134,0.0024434609804302,6.189591884613037
1761237204381944300,3.5549443359375,-1.374599575996399,-0.2380847334861755,5.8583502769470215
1761237204399983600,3.572983642578125,-1.3309226036071775,-0.099418319761753,5.396536350250244
1761237204418021000,3.591021240234375,-1.2289081811904907,0.1789835095405578,4.929529666900635
1761237204436059100,3.60905908203125,-1.060614824295044,0.3271183371543884,4.193742752075195
1761237204454096600,3.6270966796875,-0.68951416015625,0.3749185502529144,3.279888153076172
1761237204472134400,3.645134521484375,-0.1464549452066421,0.1721112877130508,2.353511095046997
1761237204490172000,3.663171875,0.3307835161685943,-0.4531092941761017,1.2079859972000122
1761237204508210400,3.68121044921875,0.7272350788116455,-1.291369080543518,-0.0258090570569038
1761237204526243000,3.6992431640625,1.036027431488037,-1.8165605068206787,-0.8988882303237915
1761237204544286000,3.717285888671875,1.1815661191940308,-2.0422751903533936,-1.334282398223877
1761237204562323500,3.735323486328125,1.0772608518600464,-1.903303384780884,-1.3385584354400637
1761237204580361200,3.753361328125,0.8881980776786804,-1.3781119585037231,-1.193783402442932
1761237204598400300,3.771400146484375,0.6241515874862671,-0.7583891749382019,-1.1264355182647705
1761237204616432400,3.789432373046875,0.461355984210968,-0.0849102661013603,-1.1786644458770752
1761237204634476500,3.8074765625,0.4538728892803192,0.355981707572937,-1.3353514671325684
1761237204652512300,3.82551220703125,0.5931501388549805,0.6937901973724365,-1.5351043939590454
1761237204670549800,3.8435498046875,0.6482807397842407,0.8885034918785095,-1.7806721925735474
1761237204688575700,3.86157568359375,0.6673702597618103,1.017396092414856,-2.1335995197296143
1761237204706625500,3.87962548828125,0.6275113224983215,0.8778133392333984,-2.626720666885376
1761237204724663300,3.897663330078125,0.4564690589904785,0.7082982659339905,-3.0949487686157227
1761237204742701000,3.915701171875,0.3112358450889587,0.5580254197120667,-3.5132386684417725
1761237204760738600,3.933738525390625,0.294437050819397,0.4103487432003021,-3.63861894607544
1761237204778777300,3.95177734375,0.295353353023529,0.3639229834079742,-3.5136969089508057
1761237204796813600,3.9698134765625,0.2649627923965454,0.110566608607769,-3.186731338500977
1761237204814851600,3.9878515625,0.1380555480718612,-0.2680171132087707,-2.647031784057617
1761237204832889600,4.0058896484375,0.0323758572340011,-0.5537493228912354,-2.0366246700286865
1761237204850929000,4.023928955078125,-0.0253509078174829,-0.5493205785751343,-1.618945598602295
1761237204868965400,4.04196533203125,-0.0656680166721344,-0.3875939846038818,-1.4792101383209229
1761237204887003000,4.0600029296875,-0.1560760736465454,-0.2180788964033126,-1.3545936346054075
1761237204905041000,4.078041015625,-0.2167044430971145,-0.1385136991739273,-1.1058188676834106
1761237204923079000,4.096078857421875,-0.2318233549594879,-0.2174680233001709,-0.7757988572120667
1761237204941116200,4.1141162109375,-0.2449569702148437,-0.1345430761575698,-0.4019493460655212
1761237204959154000,4.13215380859375,-0.3159700334072113,0.2904664278030395,-0.0739146918058395
1761237204977192000,4.15019189453125,-0.3837760984897613,0.956462264060974,0.0612392425537109
1761237204995229200,4.168229248046875,-0.4862487316131592,1.7832683324813845,0.2806925773620605
1761237205013267500,4.186267333984375,-0.599564254283905,2.425593137741089,0.675006091594696
1761237205031305200,4.20430517578125,-0.7480044960975647,2.2046127319335938,0.7857254147529602
1761237205049343000,4.222343017578125,-0.6340781450271606,0.6530149579048157,0.746630072593689
1761237205067380700,4.240380615234375,-0.3491095006465912,-0.4529565870761871,1.7693711519241333
1761237205085418500,4.25841845703125,-0.1936442852020263,0.0050396383740007,2.6248879432678223
1761237205103456000,4.2764560546875,-0.3376557528972626,0.9337075352668762,2.258826971054077
1761237205121493800,4.29449365234375,-0.5798638463020325,1.6035212278366089,2.4865269660949707
1761237205139531300,4.31253125,-0.4973970353603363,2.470186233520508,4.138917446136475
1761237205157566200,4.330566162109375,0.5787948369979858,2.995530366897583,5.567883968353272
1761237205175595500,4.348595458984375,1.8211419582366943,2.247525930404663,6.291759490966797
1761237205193638100,4.36663818359375,2.1788036823272705,0.342084527015686,6.491970539093018
1761237205211685600,4.384685546875,1.8055649995803835,-1.540143966674805,6.188828468322754
1761237205229720600,4.402720458984375,1.4753923416137695,-1.8970420360565183,5.217552661895752
1761237205247758600,4.420758544921875,1.2327260971069336,-1.4749341011047363,3.7681221961975098
1761237205265792500,4.43879248046875,0.8784242272377014,-1.175152063369751,2.289064884185791
1761237205283830800,4.456830810546875,0.542142927646637,-0.875064492225647,0.8355109095573425
1761237205301873200,4.474873046875,0.2574796974658966,-0.5047274231910706,-0.6075055003166199
1761237205319910100,4.49291015625,0.1412625908851623,-0.1495092660188675,-1.4114041328430176
1761237205337947000,4.51094677734375,0.046578474342823,0.375987559556961,-1.4634803533554075
1761237205355984600,4.528984619140625,-0.1508837193250656,0.8219192028045654,-1.1533136367797852
1761237205374022400,4.5470224609375,-0.3782783150672912,1.0807733535766602,-0.8622363209724426
1761237205392060700,4.565060791015625,-0.4465425014495849,1.208902359008789,-0.627358615398407
1761237205410098200,4.58309814453125,-0.3859141170978546,0.9711230397224426,-0.6669121384620667
1761237205428136200,4.60113623046875,-0.2212859392166137,0.4115704596042633,-1.048092007637024
1761237205446173000,4.6191728515625,-0.0519235469400882,-0.2866485118865967,-1.6676621437072754
1761237205464212500,4.63721240234375,0.0632245540618896,-0.9819658994674684,-2.3461806774139404
1761237205482249200,4.655249267578125,-0.0152716310694813,-1.4272866249084473,-2.866485118865967
1761237205500287500,4.67328759765625,-0.1308778822422027,-1.278999090194702,-3.2340734004974365
1761237205518324500,4.691324462890625,-0.2025018334388733,-0.5413793325424194,-3.520569086074829
1761237205536363000,4.709363037109375,-0.235030397772789,0.1145372316241264,-3.675423383712769
1761237205554388500,4.727388427734375,-0.2368630021810531,0.4210388660430908,-3.631441116333008
1761237205572438000,4.74543798828125,-0.1704314053058624,0.3002402782440185,-3.3652565479278564
1761237205590476000,4.76347607421875,-0.0653625801205635,-0.0775798857212066,-3.0665435791015625
1761237205608513500,4.781513427734375,0.070249505341053,-0.6779077053070068,-2.806925773620605
1761237205626551600,4.799551513671875,0.2031126916408538,-1.1418598890304563,-2.393828153610229
1761237205644589000,4.817589111328125,0.2967278063297272,-1.445612549781799,-1.8455766439437864
1761237205662627000,4.835626953125,0.299476683139801,-1.5193746089935305,-1.29075825214386
1761237205680664600,4.85366455078125,0.1988366395235061,-1.5974125862121582,-0.984256625175476
1761237205698702300,4.871702392578125,0.0824668109416961,-1.442863702774048,-0.9627236127853394
1761237205716736300,4.889736328125,-0.0394008085131645,-1.1383473873138428,-1.130406141281128
1761237205734777900,4.90777783203125,-0.2374738603830337,-0.8871290683746338,-1.2327260971069336
1761237205752816000,4.925816162109375,-0.4567744731903076,-0.3304781019687652,-1.063821792602539
1761237205770853400,4.943853271484375,-0.6160575747489929,0.4214970171451568,-0.5254968404769897
1761237205788891400,4.961891357421875,-0.6009386777877808,1.0934487581253052,0.0836885422468185
1761237205806929000,4.979928955078125,-0.4589125216007232,1.3738359212875366,-0.1829541474580764
1761237205824966700,4.997966552734375,-0.4860960245132446,0.2941316068172455,-1.1659890413284302
1761237205843005000,5.0160048828125,-1.0320568084716797,-1.0352638959884644,-1.0734429359436035
1761237205861042700,5.034042724609375,-1.3422236442565918,0.1942551434040069,0.2003637999296188
1761237205879080200,5.052080078125,-0.7874053120613098,2.3182334899902344,0.622013509273529
1761237205897117700,5.07011767578125,-0.3622430860996246,2.2485949993133545,1.4677565097808838
1761237205915156500,5.088156494140625,-0.2246456891298294,0.694248378276825,3.573867082595825
1761237205933193700,5.10619384765625,0.0896444767713546,-0.0372627787292003,5.456553936004639
1761237205951229000,5.12422900390625,0.384845107793808,0.5432119369506836,6.160728931427002
1761237205969267700,5.142267822265625,0.3081815242767334,1.0343475341796875,6.181192874908447
1761237205987310600,5.160310546875,0.0910189226269722,0.4696026444435119,6.194326400756836
1761237206005344500,5.178344482421875,0.0768163055181503,-0.0390953756868839,6.22792387008667
1761237206023382000,5.196382080078125,0.2182316035032272,0.2104430794715881,5.977011203765869
1761237206041420300,5.214420166015625,0.4416555762290954,0.8494081497192383,5.169600009918213
1761237206059458300,5.232458251953125,0.6388123035430908,1.2725850343704224,4.01430082321167
1761237206077496000,5.25049609375,0.6603453159332275,0.6969972252845764,2.959183931350708
1761237206095533600,5.268533447265625,0.5557346343994141,-0.5691736936569214,1.9234619140625
1761237206113570800,5.28657080078125,0.5972734689712524,-1.5850425958633425,0.7837401032447815
1761237206131609000,5.304609130859375,0.5728389024734497,-1.686446189880371,-0.3350595831871032
1761237206149648600,5.322648681640625,0.34162637591362,-0.9750936627388,-1.154382586479187
1761237206167684600,5.3406845703125,-0.0804814994335174,0.0910189226269722,-1.5317445993423462
1761237206185722600,5.35872265625,-0.3839288055896759,1.0922271013259888,-1.490511178970337
1761237206203760400,5.376760498046875,-0.4201225638389587,1.671938180923462,-1.0716103315353394
1761237206221798100,5.394798095703125,-0.2536617815494537,1.7119498252868652,-0.6062837839126587
1761237206239836200,5.412836181640625,-0.0781907513737678,1.2530373334884644,-0.3912591934204101
1761237206257873700,5.430873779296875,0.0601702257990837,0.6130032539367676,-0.4831944108009338
1761237206275907300,5.4489072265625,0.1256855279207229,0.050854530185461,-0.9502009153366088
1761237206293937400,5.4669375,0.0775798857212066,-0.3376557528972626,-1.666898488998413
1761237206311987500,5.484987548828125,-0.0801760628819465,-0.3591887652873993,-2.3716843128204346
1761237206330025000,5.50302490234375,-0.2684752643108368,-0.0371100641787052,-2.892599582672119
1761237206348063000,5.52106298828125,-0.4092797040939331,0.4305072724819183,-3.232240676879883
1761237206366100500,5.5391005859375,-0.4787656366825104,0.780380368232727,-3.196810483932495
1761237206384138200,5.55713818359375,-0.4147774875164032,0.8952230215072632,-2.8324294090271
1761237206402176000,5.575176025390625,-0.3834706544876098,0.765566885471344,-2.531730890274048
1761237206420214300,5.59321435546875,-0.3625485301017761,0.4259257912635803,-2.31472110748291
1761237206438251500,5.61125146484375,-0.3730859458446502,0.0981965884566307,-2.155743360519409
1761237206456285000,5.629284912109375,-0.4395175576210022,-0.1751656085252761,-1.899485468864441
1761237206474327000,5.6473271484375,-0.470671683549881,-0.3144428730010986,-1.5202908515930176
1761237206492364800,5.66536474609375,-0.4486805200576782,-0.2086104750633239,-1.2211196422576904
1761237206510403000,5.683403076171875,-0.3952298164367676,0.133474051952362,-1.024420976638794
1761237206528441000,5.701441162109375,-0.3462078869342804,0.8003861904144287,-0.7577783465385437
1761237206546478600,5.719478515625,-0.2134974002838134,1.7085901498794556,-0.4830417037010193
1761237206564516000,5.73751611328125,-0.1087340116500854,2.092060804367065,-0.722959041595459
1761237206582554400,5.755554443359375,-0.1423316001892089,0.4489859640598297,-1.839773416519165
1761237206600592000,5.773591796875,-0.6467535495758057,-1.8671096563339236,-3.1978795528411865
1761237206618629400,5.79162939453125,-1.1102476119995115,-1.3214542865753174,-3.248886823654175
1761237206636667600,5.809667724609375,-0.7695375084877014,1.5593862533569336,-2.309070587158203
1761237206654705000,5.827704833984375,-0.2023491114377975,2.790890693664551,-1.7959438562393188
1761237206672742700,5.84574267578125,0.110566608607769,2.00394344329834,-1.0781772136688232
1761237206690762500,5.863762451171875,0.6038402915000916,0.4408919811248779,0.2916881442070007
1761237206708818700,5.881818603515625,1.0879509449005127,-1.2618948221206665,1.3698652982711792
1761237206726856400,5.8998564453125,1.2965614795684814,-2.713310718536377,1.9737056493759155
1761237206744894200,5.917894287109375,0.9813550114631652,-3.173597574234009,1.991573452949524
1761237206762932200,5.93593212890625,0.1954768747091293,-2.484541654586792,1.3765848875045776
1761237206780970000,5.953969970703125,-0.3877467215061188,-1.2226468324661257,0.5833762884140015
1761237206799007500,5.972007568359375,-0.6661485433578491,-0.2231185287237167,0.1145372316241264
1761237206817033200,5.990033203125,-0.7396050691604614,-0.1137736514210701,-0.2328923791646957
1761237206835076900,6.008076904296875,-0.7673994898796082,-0.5022839307785034,-0.4204280078411102
1761237206853109000,6.02610888671875,-0.9836457371711732,-1.0992519855499268,-0.6637051105499268
1761237206871159000,6.044158935546875,-1.4708107709884644,-0.8982773423194885,-0.7573201656341553
1761237206889196300,6.0621962890625,-1.6333009004592896,-0.983340322971344,-0.8843801617622375
1761237206907235000,6.080235107421875,-1.6052011251449585,-0.8048149347305298,-1.058171272277832
1761237206925272000,6.09827197265625,-1.7570011615753174,-0.6589708924293518,-1.197906732559204
1761237206943309800,6.116309814453125,-1.9582812786102293,-0.5949827432632446,-1.2959506511688232
1761237206961346800,6.134346923828125,-2.319149971008301,0.3065016269683838,-1.2612839937210083
1761237206979387000,6.152386962890625,-2.272724151611328,0.9370672702789308,-1.4952454566955566
1761237206997423400,6.17042333984375,-1.387580394744873,-1.2666290998458862,-2.3605360984802246
1761237207015461000,6.188461181640625,-0.5503895878791809,0.6908885836601257,-1.814880609512329
1761237207033498000,6.206498046875,0.4404338300228119,1.026253581047058,-0.98929625749588
1761237207051526100,6.224526123046875,1.4023939371109009,1.4593570232391355,-0.0568104684352874
1761237207069574700,6.24257470703125,1.92819619178772,1.505935549736023,0.1892155110836029
1761237207087612700,6.26061279296875,2.040595293045044,1.910022854804993,-0.1218676194548606
1761237207105650200,6.278650146484375,1.801136136054993,1.9314031600952148,-0.4575380682945251
1761237207123687700,6.296687744140625,1.21974515914917,1.338711142539978,-0.537408709526062
1761237207141725700,6.3147255859375,0.522595226764679,0.9544769525527954,-0.1316414624452591
1761237207159763500,6.332763427734375,0.256868839263916,0.958752989768982,0.423787772655487
1761237207177801500,6.350801513671875,0.0743728429079055,0.2368630021810531,0.6070473194122314
1761237207195835600,6.368835693359375,-0.0963639914989471,-0.1301143020391464,0.6976081132888794
1761237207213876700,6.386876708984375,-0.1302670091390609,-0.1206458881497383,0.6872233748435974
1761237207231915000,6.4049150390625,-0.0983493030071258,0.0849102661013603,0.5590944290161133
1761237207249952800,6.422952880859375,-0.0360410511493682,0.3494149148464203,0.4263839423656463
1761237207267990500,6.440990478515625,0.1038470938801765,0.556345522403717,0.3463605940341949
1761237207286021000,6.459021240234375,0.2383901625871658,0.6256787180900574,0.2738203406333923
1761237207304068000,6.477068115234375,0.3112358450889587,0.5792529582977295,0.2295326143503189
1761237207322103600,6.495103515625,0.2985603809356689,0.7808384895324707,0.4528038501739502
1761237207340141600,6.5131416015625,0.0983493030071258,0.7948883771896362,0.6676757335662842
1761237207358179000,6.531178955078125,-0.04505131021142,0.1298088580369949,0.4816672503948211
1761237207376217000,6.549217041015625,0.0717766657471656,-0.1976149082183838,0.0734565481543541
1761237207394255000,6.567255126953125,0.0795651972293853,0.0145080499351024,-0.051312681287527
1761237207412293000,6.585293212890625,0.2038762718439102,0.173791155219078,0.1551597714424133
1761237242121486600,0.124486572265625,0.7750352621078491,0.0479529201984405,-0.2866485118865967
1761237242139528200,0.142528076171875,0.9196576476097108,-0.016951510682702,-0.2700024247169494
1761237242157573000,0.160572998046875,0.8445212244987488,-0.0716239511966705,-0.3981314301490783
1761237242175611000,0.17861083984375,0.7486153841018677,0.0242818929255008,-0.6229298114776611
1761237242193648600,0.196648681640625,0.5838344693183899,0.2020436823368072,-0.7619016766548157
1761237242211686700,0.214686767578125,0.4453207552433014,0.3552181422710418,-0.817948579788208
1761237242229712400,0.23271240234375,0.3680463135242462,0.2689334154129028,-0.8020660877227783
1761237242247762000,0.250761962890625,0.4085161387920379,0.1817324161529541,-0.6403394937515259
1761237242265795600,0.268795654296875,0.5618433356285095,-0.3888157308101654,-0.5728389024734497
1761237242283837400,0.28683740234375,0.5803219676017761,-0.4831944108009338,-0.6189591884613037
1761237242301874700,0.304874755859375,0.4350887835025787,-0.8591819405555725,-0.4106541574001312
1761237242319912400,0.322912353515625,0.2428189367055893,-1.8857409954071045,0.1684460937976837
1761237242337950000,0.340949951171875,-0.1449277848005294,-2.379014730453491,0.6026185750961304
1761237242355983000,0.358983154296875,-0.2860376536846161,-1.6699528694152832,0.9891435503959656
1761237242374025500,0.377025390625,0.2709187269210815,-0.7391469478607178,1.2040153741836548
1761237242392063200,0.395063232421875,0.6157521605491638,0.1847867369651794,1.5700763463974
1761237242410101200,0.413101318359375,0.5096143484115601,0.1638645976781845,1.7360789775848389
1761237242428139000,0.431138916015625,0.527634859085083,-0.1834122836589813,1.508837103843689
1761237242446176500,0.449176513671875,0.4043927788734436,-0.2793181240558624,0.8316930532455444
1761237242464212700,0.467212646484375,0.128892570734024,-0.0757472887635231,0.1963931769132614
1761237242482253000,0.485253173828125,-0.0505490973591804,0.0655152946710586,-0.0235183127224445
1761237242500289500,0.50328955078125,-0.1081231459975242,-0.0138971842825412,-0.0027488935738801
1761237242518327300,0.521327392578125,-0.104763388633728,-0.1730275750160217,-0.2469422817230224
1761237242536364500,0.539364501953125,-0.2333505302667617,0.2716823220252991,-0.945466697216034
1761237242554402800,0.55740283203125,-0.4853324294090271,1.014647126197815,-1.8387043476104736
1761237242572440300,0.5754404296875,-0.5491678714752197,1.9117027521133425,-2.3490822315216064
1761237242590478000,0.59347802734375,-0.6291912198066711,2.5422685146331787,-2.6166412830352783
1761237242608516000,0.61151611328125,-0.8843801617622375,2.5581510066986084,-2.8683178424835205
1761237242626549200,0.62954931640625,-0.7860308289527893,1.8692476749420168,-3.2870659828186035
1761237242644595500,0.647595458984375,-0.1295034289360046,0.2756529450416565,-2.760652780532837
1761237242662628900,0.66562890625,-0.2280054539442062,-0.1131627857685089,-1.0816895961761477
1761237242680666400,0.683666259765625,-0.3058907687664032,0.8339837789535522,1.0517572164535522
1761237242698704100,0.7017041015625,0.370947927236557,-0.4355469346046448,3.6806159019470215
1761237242716741600,0.71974169921875,1.671021819114685,-1.481042742729187,4.686863422393799
1761237242734762500,0.737762451171875,2.031737804412842,-0.9376781582832336,4.2334489822387695
1761237242752817400,0.7558173828125,1.174388408660889,-0.5981897711753845,3.2067370414733887
1761237242770854700,0.773854736328125,-0.0404698215425014,-0.512210488319397,1.7402023077011108
1761237242788892700,0.791892578125,-0.7385360598564148,-0.4315762817859649,0.2373211532831192
1761237242806930400,0.809930419921875,-0.9941831827163696,-0.3103195428848266,-0.9860892295837402
1761237242824968200,0.82796826171875,-0.9456194043159484,-0.0332921557128429,-1.7079792022705078
1761237242843005700,0.846005615234375,-0.6998988389968872,0.3498730659484863,-1.9876028299331665
1761237242861043500,0.86404345703125,-0.4034765064716339,0.437226802110672,-1.913382649421692
1761237242879080700,0.882080810546875,-0.266184538602829,0.3846924006938934,-1.703092336654663
1761237242897118500,0.900118408203125,-0.1824959963560104,0.3833179473876953,-1.542281985282898
1761237242915156500,0.918156494140625,-0.024892758578062,0.3376557528972626,-1.5900822877883911
1761237242933194200,0.9361943359375,0.1282816976308822,0.2437352389097213,-1.6381878852844238
1761237242951231000,0.95423095703125,0.1857030391693115,0.2127338200807571,-1.3634512424468994
1761237242969266000,0.972265869140625,0.2034181207418441,0.2099849283695221,-0.7979426980018616
1761237242987310800,0.990310791015625,0.1922698318958282,0.1644754707813263,-0.1354593634605407
1761237243005344500,1.008344482421875,0.1638645976781845,0.0242818929255008,0.455705463886261
1761237243023382800,1.0263828125,0.0598647929728031,-0.1362229436635971,0.8452847599983215
1761237243041420300,1.044420166015625,-0.0809396430850029,-0.2069306075572967,1.208902359008789
1761237243059458000,1.0624580078125,-0.1270599663257599,-0.2434297949075698,1.527010440826416
1761237243077495600,1.08049560546875,-0.1166752651333808,0.057115901261568,1.7058411836624146
1761237243095533000,1.098532958984375,-0.1408044397830963,0.3006984293460846,1.5541938543319702
1761237243113568000,1.116568115234375,-0.0374154970049858,0.1647808998823166,0.8113817572593689
1761237243131611600,1.134611572265625,0.007177666760981,-0.6177374720573425,-0.7107416987419128
1761237243149646000,1.15264599609375,-0.5076290369033813,-0.1889100819826126,-2.39077377319336
1761237243167683600,1.17068359375,-1.244027018547058,1.2162326574325562,-3.1778736114501958
1761237243185722400,1.188722412109375,-0.8991936445236206,1.31748366355896,-2.5022568702697754
1761237243203759000,1.206759033203125,-0.5765040516853333,0.3278819322586059,-1.593594670295715
1761237243221797400,1.22479736328125,-0.8378016948699951,-0.8098546266555786,-0.3384193480014801
1761237243239835000,1.2428349609375,-0.3234531581401825,-1.0054842233657837,0.1098030284047126
1761237243257872100,1.2608720703125,0.422871470451355,-0.2808452844619751,0.5522221922874451
1761237243275903200,1.2789033203125,0.6363688707351685,0.3350595831871032,1.0766500234603882
1761237243293936600,1.2969365234375,0.6146831512451172,0.4604396820068359,1.4233160018920898
1761237243311988500,1.314988525390625,0.3521638214588165,0.2040289938449859,1.2206615209579468
1761237243330020600,1.3330205078125,-0.1123992055654525,-0.2432770878076553,0.35659259557724
1761237243348063700,1.351063720703125,-0.4604396820068359,-0.8319984674453735,-0.9608910083770752
1761237243366098400,1.369098388671875,-0.3825543522834778,-0.8857545852661133,-2.043649673461914
1761237243384136200,1.38713623046875,-0.4401284158229828,0.252134621143341,-1.406822681427002
1761237243402162000,1.405161865234375,0.4569272100925445,0.3744603991508484,0.1085812970995903
1761237243420211700,1.423211669921875,1.28128981590271,0.5096143484115601,1.7377588748931885
1761237243438249200,1.441249267578125,1.4201090335845947,0.0232128798961639,3.0660853385925293
1761237243456286700,1.45928662109375,0.7848091125488281,-0.299934834241867,3.8014144897460938
1761237243474324500,1.477324462890625,0.1733330190181732,-0.5984952449798584,3.3559410572052
1761237243492362200,1.4953623046875,-0.2302961945533752,-0.2347249686717987,2.3722951412200928
1761237243510400300,1.513400146484375,-0.4031710624694824,0.1685988008975982,0.8132143616676331
1761237243528437800,1.531437744140625,-0.18539759516716,0.0413861200213432,-0.9059131741523744
1761237243546475300,1.549475341796875,-0.028557950630784,-0.096669428050518,-2.0674734115600586
1761237243564507000,1.5675068359375,0.0659734457731247,-0.181274265050888,-2.615572214126587
1761237243582550800,1.58555078125,0.0568104684352874,-0.2020436823368072,-2.7093400955200195
1761237243600588500,1.603588623046875,-0.0138971842825412,-0.2009746730327606,-2.4782803058624268
1761237243618626300,1.621626220703125,-0.0300851128995418,-0.1488984078168869,-2.104888916015625
1761237243636663600,1.63966357421875,0.0736092627048492,-0.1007927656173706,-1.866346001625061
1761237243654701600,1.65770166015625,0.1963931769132614,-0.0177150927484035,-1.6360498666763306
1761237243672739000,1.675739013671875,0.2929098904132843,0.0171042270958423,-1.339016675949097
1761237243690776800,1.69377685546875,0.3356704413890838,-0.0346666015684604,-0.9544769525527954
1761237243708814600,1.711814697265625,0.3226895630359649,-0.1356120854616165,-0.5293147563934326
1761237243726852400,1.729852294921875,0.2926044464111328,-0.1913535445928573,-0.1130100712180137
1761237243744889900,1.747889892578125,0.3016147017478943,-0.1055269688367843,0.2738203406333923
1761237243762927900,1.765927978515625,0.3016147017478943,-0.107512280344963,0.593302845954895
1761237243780962600,1.783962646484375,0.2226603776216507,-0.2432770878076553,0.7841982841491699
1761237243799003000,1.8020029296875,0.1282816976308822,-0.4017966091632843,0.8713992834091187
1761237243817026800,1.82002685546875,0.0897971913218498,-0.5308418869972229,0.873842716217041
1761237243835068000,1.83806787109375,0.1869247704744339,-0.5948300361633301,0.698066234588623
1761237243853104000,1.856104248046875,0.0798706337809562,-0.4677700698375702,0.4347833395004272
1761237243871154200,1.874154296875,0.0897971913218498,-0.5013676285743713,-0.1221730485558509
1761237243889191400,1.89219140625,-0.116827979683876,-0.6180428862571716,-0.6075055003166199
1761237243907231000,1.91023095703125,-0.4387539625167846,-0.4621195495128631,-0.7000515460968018
1761237243925266400,1.928266357421875,-0.1980730593204498,-0.0821613743901252,-0.4424191415309906
1761237243943304400,1.946304443359375,-0.0757472887635231,0.1644754707813263,-0.2368630021810531
1761237243961342000,1.964342041015625,-0.9127854108810424,-0.656680166721344,-0.718224823474884
1761237243979381000,1.982381103515625,-0.7475463151931763,-1.2476922273635864,0.5203045010566711
1761237243997416000,2.000416015625,-0.2148718535900116,-0.8286387324333191,1.5178474187850952
1761237244015456300,2.018456298828125,-0.303600013256073,-0.3006984293460846,1.8002198934555054
1761237244033489000,2.036489013671875,-0.9714284539222716,-0.039248090237379,1.4928019046783447
1761237244051537000,2.054536865234375,-1.2176071405410769,0.399658590555191,0.8718574047088623
1761237244069567700,2.072567626953125,-1.0381654500961304,0.570853590965271,0.2397646158933639
1761237244087606000,2.09060595703125,-0.9265298843383788,0.182648703455925,-0.5247332453727722
1761237244105643500,2.1086435546875,-0.4295909702777862,-0.3063489198684692,-0.9750936627388
1761237244123682300,2.126682373046875,0.2861903607845306,-0.3364340364933014,-0.9414960741996764
1761237244141719000,2.144718994140625,0.2012801021337509,-0.0232128798961639,0.1589776873588562
1761237244159756000,2.162756103515625,0.3533855378627777,0.5299255847930908,1.707215666770935
1761237244177794600,2.180794677734375,0.7231117486953735,0.9301950335502625,2.246762275695801
1761237244195821000,2.198821044921875,0.5881105065345764,0.8411614298820496,2.3434317111968994
1761237244213864400,2.216864501953125,0.1207986027002334,0.3523165285587311,2.372600555419922
1761237244231907000,2.234906982421875,-0.2922990322113037,-0.3831652104854584,2.12703275680542
1761237244249945000,2.252945068359375,-0.0184786729514598,-0.4717406928539276,2.110844850540161
1761237244267971800,2.270971923828125,0.197920337319374,0.2996293902397156,1.5661057233810425
1761237244286020600,2.2890205078125,-0.0897971913218498,0.3394883573055267,0.3938553631305694
1761237244304058000,2.30705810546875,-0.2958115041255951,0.1241583600640297,-0.7130324840545654
1761237244322095600,2.325095703125,-0.34162637591362,0.072540245950222,-1.6406313180923462
1761237244340134400,2.343134521484375,-0.3262020349502563,-0.0331394411623477,-2.028836250305176
1761237244358171100,2.361171142578125,-0.3498730659484863,0.0041233403608202,-1.971262097358704
1761237244376208400,2.37920849609375,-0.2721404731273651,0.0841466858983039,-1.916437029838562
1761237244394246700,2.39724658203125,-0.1492038369178772,0.2530509233474731,-1.7886134386062622
1761237244412285000,2.415284912109375,-0.036499198526144,0.2747366428375244,-1.599703311920166
1761237244430308400,2.433308349609375,0.0957531258463859,0.2478585690259933,-1.3280210494995115
1761237244448359700,2.451359619140625,0.2116648107767105,0.1563815027475357,-1.0013608932495115
1761237244466397000,2.46939697265625,0.256868839263916,0.072540245950222,-0.7185302376747131
1761237244484436200,2.487436279296875,0.2196060568094253,-0.0099265603348612,-0.5196936130523682
1761237244502472200,2.50547216796875,0.2409863322973251,-0.0717766657471656,-0.370947927236557
1761237244520509700,2.523509765625,0.3258966207504272,-0.0146607663482427,-0.2005165219306945
1761237244538547700,2.541547607421875,0.4245513379573822,0.0688750594854354,0.0166460778564214
1761237244556586500,2.55958642578125,0.4917465150356293,0.0430659987032413,0.1695151031017303
1761237244574623000,2.577623046875,0.5580254197120667,-0.0525344125926494,0.2515237629413605
1761237244592660700,2.59566064453125,0.6333145499229431,-0.1430951803922653,0.323605865240097
1761237244610698800,2.61369873046875,0.5616905689239502,-0.0636827051639556,0.2267837226390838
1761237244628737500,2.631737548828125,0.3436116874217987,0.0914770737290382,-0.2544253766536712
1761237244646774000,2.64977392578125,-0.0497855171561241,-0.4825835525989532,-1.2974777221679688
1761237244664811500,2.6678115234375,-0.1945605874061584,-1.0781772136688232,-1.8359555006027224
1761237244682849000,2.68584912109375,-0.2116648107767105,-0.2112066596746444,-1.4141530990600586
1761237244700887600,2.703887451171875,-0.1540907621383667,-0.266642689704895,-0.6852380633354187
1761237244718924300,2.72192431640625,-0.8787296414375305,-1.2977832555770874,0.1476766765117645
1761237244736962000,2.739962158203125,-1.6409367322921753,-1.750739812850952,1.3779592514038086
1761237244755000000,2.758,-1.5767959356307983,-0.7640396952629089,1.3700180053710938
1761237244773038600,2.77603857421875,-1.111163854598999,0.3795000314712524,0.9474520087242126
1761237244791075300,2.794075439453125,-0.432034432888031,0.479834645986557,0.9352346658706664
1761237244809112600,2.812112548828125,0.1377501189708709,0.5016731023788452,0.9234755635261536
1761237244827151000,2.830151123046875,0.3833179473876953,0.4263839423656463,0.5769622325897217
1761237244845188000,2.84818798828125,0.4308127164840698,0.128892570734024,-0.4685336351394653
1761237244863228200,2.866228271484375,0.7890852093696594,-0.1866193264722824,-1.6954565048217771
1761237244881262800,2.884262939453125,0.7875580191612244,0.1473712474107742,-2.026850938796997
1761237244899301000,2.902301025390625,0.3500257730484009,0.8446739315986633,-1.0670288801193235
1761237244917340000,2.92033984375,0.6407976150512695,0.9080511927604676,0.5607742667198181
1761237244935370000,2.938369873046875,1.287245750427246,0.6466008424758911,2.951853513717652
1761237244953414700,2.95641455078125,1.5830572843551636,0.6963863968849182,4.485430717468262
1761237244971452200,2.9744521484375,0.9146180152893066,0.3207042515277862,4.620890140533447
1761237244989491000,2.992490966796875,-0.0297796800732612,-0.1415680199861526,3.598454475402832
1761237245007527200,3.010527099609375,-0.7348709106445312,0.4150829315185547,2.300060272216797
1761237245025565200,3.028565185546875,-0.8434522151947021,0.925308108329773,0.7831292152404785
1761237245043599400,3.046599365234375,-0.8263479471206665,0.6363688707351685,-0.4967861473560333
1761237245061641700,3.064641845703125,-0.821461021900177,0.2109012305736541,-1.252121090888977
1761237245079678000,3.082677978515625,-0.6589708924293518,-0.0108428578823804,-1.5596916675567627
1761237245097700600,3.10070068359375,-0.4581489264965057,0.0357356183230876,-1.6134477853775024
1761237245115748400,3.118748291015625,-0.3509420752525329,0.0395535230636596,-1.605659246444702
1761237245133792000,3.1367919921875,-0.3355177342891693,0.1324050426483154,-1.5913039445877075
1761237245151828700,3.154828857421875,-0.2587014436721802,0.1392772793769836,-1.5943583250045776
1761237245169866200,3.1728662109375,-0.171042263507843,0.1872301995754242,-1.6333009004592896
1761237245187903700,3.19090380859375,-0.0178678091615438,0.2532036304473877,-1.652390480041504
1761237245205942500,3.208942626953125,0.1519527286291122,0.0549778714776039,-1.577254056930542
1761237245223979500,3.2269794921875,0.2333505302667617,-0.0421497002243995,-1.4350751638412476
1761237245242017300,3.245017333984375,0.3058907687664032,-0.1279762685298919,-1.120632290840149
1761237245260054800,3.2630546875,0.3509420752525329,-0.1377501189708709,-0.6771441102027893
1761237245278093600,3.281093505859375,0.3295617997646332,-0.1166752651333808,-0.194713294506073
1761237245296130300,3.29913037109375,0.2785545587539673,-0.0969748571515083,0.1539380401372909
1761237245314168000,3.31716796875,0.2003637999296188,-0.0610865242779254,0.2744311988353729
1761237245332205300,3.335205322265625,0.1469130963087082,-0.0768163055181503,0.2503020465373993
1761237245350244600,3.35324462890625,0.1802052408456802,-0.0647517144680023,0.2171625941991806
1761237245368280600,3.371280517578125,0.218842476606369,-0.1588249653577804,0.1731802970170974
1761237245386318300,3.389318359375,0.0429132841527462,-0.5601634383201599,0.0664315968751907
1761237245404355800,3.40735595703125,-0.6403394937515259,-0.9330966472625732,-0.3646865487098694
1761237245422395400,3.4253955078125,-1.2136365175247192,-1.9233092069625852,-1.06657075881958
1761237245440431600,3.443431640625,-1.0346530675888062,-1.54945969581604,-0.7767151594161987
1761237245458469400,3.461469482421875,-1.0876455307006836,-0.8885034918785095,-1.036943793296814
1761237245476506600,3.479506591796875,-1.445612549781799,-1.3779592514038086,-0.7473936080932617
1761237245494545400,3.49754541015625,-0.9682214260101318,-1.4249958992004397,0.3353650271892547
1761237245512582700,3.515582763671875,-0.91049462556839,-0.7202101349830627,0.6708827614784241
1761237245530620200,3.5336201171875,-0.6751587986946106,0.1912008225917816,1.0529789924621582
1761237245548657400,3.551657470703125,0.0749837085604667,0.6117815375328064,1.5416711568832395
1761237245566696200,3.5696962890625,0.4717406928539276,0.588874101638794,1.6928603649139404
1761237245584733200,3.587733154296875,0.6265950202941895,0.3851505517959595,1.501506805419922
1761237245602763000,3.605762939453125,0.7189884185791016,0.1666134893894195,0.8904888033866882
1761237245620808400,3.623808349609375,0.9947940707206726,0.2205223590135574,-0.2026545405387878
1761237245638847200,3.64184716796875,1.4278974533081057,0.4928155243396759,-1.337336778640747
1761237245656883700,3.6598837890625,1.2153164148330688,1.0538952350616455,-1.8762725591659544
1761237245674921500,3.67792138671875,0.8677340745925903,1.274570345878601,-1.2733485698699951
1761237245692958700,3.695958740234375,0.8032878041267395,1.1400272846221924,0.0244346093386411
1761237245710996200,3.713996337890625,0.6505714654922485,1.0326677560806274,1.4662293195724487
1761237245729035500,3.732035400390625,0.6979135274887085,0.7467827796936035,2.4217753410339355
1761237245747072800,3.75007275390625,0.5354233980178833,0.9184358716011048,2.7731754779815674
1761237245765109500,3.768109619140625,0.1612684279680252,0.9181304574012756,2.39077377319336
1761237245783148500,3.7861484375,-0.4433354437351227,0.8468119502067566,1.1007791757583618
1761237245801185000,3.80418505859375,-0.7283040881156921,0.6985244154930115,-0.3245221674442291
1761237245819222800,3.822222900390625,-0.9998337030410768,0.6606507897377014,-1.302822828292847
1761237245837260500,3.840260498046875,-1.080162525177002,0.5757405161857605,-1.761277198791504
1761237245855286300,3.858286376953125,-1.0648908615112305,-0.0448985956609249,-1.898263692855835
1761237245873336800,3.8763369140625,-0.97830069065094,-0.2791654169559479,-1.883144855499268
1761237245891373600,3.89437353515625,-0.8028296232223511,-0.275347501039505,-1.6635388135910034
1761237245909411000,3.9124111328125,-0.5170974135398865,-0.2965750694274902,-1.4309518337249756
1761237245927450000,3.9304501953125,-0.3129157125949859,-0.1522581577301025,-1.3048081398010254
1761237245945486600,3.948486572265625,-0.3039054572582245,-0.0310014113783836,-1.2463178634643557
1761237245963520800,3.966520751953125,-0.3188716471195221,-0.0841466858983039,-1.2232576608657837
1761237245981561900,3.984561767578125,-0.2376265823841095,-0.2325869351625442,-1.147357702255249
1761237245999599600,4.002599609375,-0.0522289797663688,-0.3878994286060333,-0.9784533977508544
1761237246017638100,4.02063818359375,0.1453859210014343,-0.5146539807319641,-0.7234171628952026
1761237246035678500,4.038678466796875,0.3535382747650146,-0.5112941861152649,-0.4805982410907745
1761237246053712400,4.05671240234375,0.5396994352340698,-0.4691445231437683,-0.2481640130281448
1761237246071751200,4.074751220703125,0.5467243790626526,-0.3651446998119354,0.0226020142436027
1761237246089788200,4.0927880859375,0.4360050559043884,-0.3126102983951568,0.1539380401372909
1761237246107825700,4.11082568359375,0.3425426781177521,-0.2974913716316223,0.231365218758583
1761237246125863200,4.12886328125,0.2837468981742859,-0.1718058437108993,0.4331034719944
1761237246143901400,4.1469013671875,0.2270891517400741,-0.1443169116973877,0.627358615398407
1761237246161939200,4.164939208984375,0.0936150997877121,-0.2672535479068756,0.6403394937515259
1761237246179976400,4.1829765625,-0.266642689704895,-0.3556762933731079,0.0177150927484035
1761237246198014000,4.201013916015625,-0.8830057382583618,-1.1383473873138428,-0.9876163601875304
1761237246216052500,4.219052490234375,-1.0326677560806274,-1.8301522731781008,-1.2333369255065918
1761237246234089000,4.2370888671875,-1.170112371444702,-1.9016234874725344,-1.2580770254135132
1761237246252126700,4.255126708984375,-1.1716395616531372,-1.894140362739563,-1.1870639324188232
1761237246270148900,4.27314892578125,-1.17240309715271,-1.599703311920166,-1.3871222734451294
1761237246288203500,4.29120361328125,-1.1068878173828125,-0.970970332622528,-0.6785185933113098
1761237246306240300,4.309240234375,-0.451582133769989,0.2079996168613433,0.1029307916760444
1761237246324277500,4.327277587890625,0.1533271819353103,0.6646214127540588,1.3796391487121582
1761237246342315300,4.345315185546875,0.5732970237731934,0.8177958726882935,2.054797887802124
1761237246360354300,4.363354248046875,0.447000652551651,0.5586362481117249,2.007150411605835
1761237246378390800,4.381390869140625,0.1127046346664428,0.5293147563934326,1.5865697860717771
1761237246396428500,4.399428466796875,-0.0820086598396301,0.6606507897377014,0.5958990454673767
1761237246414465800,4.4174658203125,-0.2302961945533752,0.906371295452118,-0.4657847583293915
1761237246432504600,4.435504638671875,0.0119118718430399,0.8837692737579346,-1.1406381130218506
1761237246450541600,4.45354150390625,0.3382666409015655,0.9431759119033812,-0.7744244337081909
1761237246468579000,4.4715791015625,0.5593998432159424,1.3906347751617432,0.7751879692077637
1761237246486616800,4.489616943359375,1.4103351831436155,1.075886368751526,2.6957483291625977
1761237246504655400,4.5076552734375,1.5572482347488403,1.1172724962234497,3.708562850952149
1761237246522691800,4.52569189453125,1.16293466091156,1.020603060722351,4.148080348968506
1761237246540729600,4.5437294921875,0.7299839854240417,0.675616979598999,4.281401634216309
1761237246558767400,4.561767333984375,0.2982549667358398,0.6890559792518616,4.0042219161987305
1761237246576806400,4.579806396484375,-0.1429424732923507,0.5580254197120667,2.9410107135772705
1761237246594843100,4.597843017578125,-0.4805982410907745,0.4560109078884125,1.4158328771591189
1761237246612880100,4.615880126953125,-0.7684684991836548,0.2684752643108368,0.0841466858983039
1761237246630918400,4.63391845703125,-1.0528262853622437,0.1111774742603302,-0.9323330521583556
1761237246648957200,4.651957275390625,-1.2003501653671265,-0.0536034256219863,-1.4578299522399902
1761237246666993400,4.669993408203125,-1.111469268798828,-0.0778853222727775,-1.5755741596221924
1761237246685031200,4.68803125,-0.8132143616676331,-0.0222965814173221,-1.468672752380371
1761237246703068700,4.706068603515625,-0.5769622325897217,0.0035124751739203,-1.2137892246246338
1761237246721107500,4.724107421875,-0.3756821155548095,-0.0649044290184974,-0.9673051238059998
1761237246739143400,4.742143310546875,-0.1545489132404327,-0.1351539343595504,-0.8385652899742126
1761237246757182500,4.760182373046875,-0.040775254368782,-0.2608394622802734,-0.7118107080459595
1761237246775219500,4.778219482421875,-0.0019853119738399,-0.2828305959701538,-0.6235406994819641
1761237246793258200,4.79625830078125,0.0416915528476238,-0.2553416788578033,-0.5143485069274902
1761237246811295000,4.814294921875,0.1542434692382812,-0.2420553565025329,-0.4043927788734436
1761237246829330200,4.832330078125,0.242513507604599,-0.2319760769605636,-0.2831360399723053
1761237246847372500,4.85037255859375,0.3019201457500458,-0.2133446931838989,-0.2225076705217361
1761237246865396200,4.868396240234375,0.4126394689083099,-0.1759291887283325,-0.2976440787315368
1761237246883437000,4.88643701171875,0.5300782918930054,-0.1658499091863632,-0.3880521357059479
1761237246901483000,4.90448291015625,0.6067419052124023,-0.1339322030544281,-0.4002694487571716
1761237246919520800,4.922520751953125,0.6195700764656067,-0.168751522898674,-0.466395616531372
1761237246937548500,4.940548583984375,0.5624541640281677,-0.3720169365406036,-0.6615670323371887
1761237246955596300,4.95859619140625,0.5407684445381165,-0.6676757335662842,-1.185231328010559
1761237246973630000,4.9766298828125,0.3248275816440582,-0.7787004709243774,-2.2426390647888184
1761237246991671800,4.994671875,-0.1035416573286056,-1.1169670820236206,-3.5659258365631104
1761237247009710000,5.0127099609375,-0.2814561724662781,-1.0960450172424316,-3.2794301509857178
1761237247027747000,5.0307470703125,0.0279470849782228,-1.8519906997680664,-2.649933338165283
1761237247045784600,5.04878466796875,0.072540245950222,-1.895667552947998,-1.517542004585266
1761237247063822600,5.066822509765625,0.2877175211906433,-1.358258843421936,-0.5198463201522827
1761237247081861000,5.084861083984375,-0.1325577646493911,-0.6562219858169556,0.5453499555587769
1761237247099897000,5.10289697265625,-0.3167336285114288,-0.1652390509843826,1.6074918508529663
1761237247117935400,5.120935302734375,-0.0383317954838275,0.1863138973712921,1.7927367687225342
1761237247135972900,5.138972900390625,0.1325577646493911,0.2606867551803589,1.1470521688461304
1761237247154006800,5.1570068359375,0.2929098904132843,-0.0836885422468185,0.0829249545931816
1761237247172048100,5.175048095703125,0.6269004344940186,0.0390953756868839,-0.1128573566675186
1761237247190086000,5.1930859375,0.7687739133834839,0.3956879675388336,0.1458440721035003
1761237247208123400,5.211123291015625,0.5196936130523682,0.4411974251270294,0.195171445608139
1761237247226162400,5.229162353515625,0.192422553896904,0.5308418869972229,-0.0678060427308082
1761237247244199200,5.24719921875,0.1395827084779739,0.6940956115722656,-0.1452332139015197
1761237247262236700,5.265236572265625,0.1527163088321685,0.5169447064399719,0.2750420868396759
1761237247280274400,5.2832744140625,-0.0054977871477603,0.4218024611473083,0.7759515643119812
1761237247298313200,5.301313232421875,-0.2567161321640014,0.4459316432476043,1.132238745689392
1761237247316349700,5.319349609375,-0.5658139586448669,0.3390302062034607,1.2834278345108032
1761237247334386200,5.33738623046875,-0.9569203853607178,0.1887573599815368,1.0766500234603882
1761237247352425700,5.35542578125,-1.1632401943206787,0.093156948685646,0.4590652287006378
1761237247370463700,5.373463623046875,-0.9990701079368592,0.1939497143030166,-0.2241875380277633
1761237247388500200,5.391500244140625,-0.5406157374382019,0.0775798857212066,-0.2060143053531646
1761237247406537700,5.409537841796875,0.0067195175215601,-0.078343465924263,0.6646214127540588
1761237247424575700,5.42757568359375,0.342695415019989,0.1140790879726409,1.7683022022247314
1761237247442614500,5.445614501953125,0.5297728776931763,0.2432770878076553,2.4362833499908447
1761237247460651000,5.463651123046875,0.6154467463493347,0.6197227835655212,2.7899742126464844
1761237247478687500,5.4816875,0.6620252132415771,0.8994990587234497,3.1137328147888184
1761237247496726300,5.499726318359375,0.485485166311264,0.8268061280250549,3.1332805156707764
1761237247514766600,5.5177666015625,0.0610865242779254,0.3567453026771545,2.8119654655456543
1761237247532801500,5.535801513671875,-0.4338670372962951,0.3489567637443542,1.6559029817581177
1761237247550839000,5.553839111328125,-0.6288857460021973,0.0678060427308082,0.1079704314470291
1761237247568877300,5.571877197265625,-0.7388415336608887,-0.2214386463165283,-1.0374019145965576
1761237247586915800,5.589915771484375,-0.784503698348999,-0.2727513313293457,-1.6939293146133425
1761237247604952000,5.6079521484375,-0.8002334833145142,-0.1617265790700912,-1.893224120140076
1761237247622990000,5.625989990234375,-0.7295258045196533,-0.113315500319004,-1.7527251243591309
1761237247641027800,5.64402783203125,-0.5532912015914917,-0.0375682115554809,-1.6879733800888062
1761237247659065900,5.66206591796875,-0.3872885704040527,0.0058032199740409,-1.4370604753494265
1761237247677103600,5.680103515625,-0.0878118798136711,-0.0942259654402732,-1.1592695713043213
1761237247695140400,5.698140380859375,0.1647808998823166,-0.1331686228513717,-0.9810495972633362
1761237247713178600,5.7161787109375,0.2996293902397156,-0.1667662113904953,-0.8897252082824707
1761237247731217400,5.734217529296875,0.3622430860996246,-0.2128865420818328,-0.8463537693023682
1761237247749241900,5.752241943359375,0.3636175394058227,-0.2156354337930679,-0.7473936080932617
1761237247767291100,5.770291015625,0.3220787048339844,-0.1452332139015197,-0.5629123449325562
1761237247785329200,5.7883291015625,0.2716823220252991,-0.0704022198915481,-0.337503045797348
1761237247803366400,5.806366455078125,0.2715296149253845,-0.0351247526705265,-0.1099557429552078
1761237247821405400,5.824405517578125,0.3733913898468017,-0.0245873257517814,0.1667662113904953
1761237247839442000,5.84244189453125,0.5196936130523682,0.0707076489925384,0.3356704413890838
1761237247857478100,5.86047802734375,0.5592471361160278,0.2411390542984008,0.3182607889175415
1761237247875526400,5.8785263671875,0.5480988621711731,0.1922698318958282,0.1776090711355209
1761237247893551400,5.89655126953125,0.5490151643753052,-0.1601994037628173,-0.252287358045578
1761237247911593000,5.914593017578125,0.4434881806373596,-0.3094032406806946,-1.789071559906006
1761237247929630500,5.93263037109375,-0.0930042341351509,-0.656680166721344,-2.7841711044311523
1761237247947669200,5.950669189453125,-0.00137444678694,-1.3393220901489258,-2.51050353050232
1761237247965706000,5.9687060546875,0.2962696552276611,-1.546558141708374,-2.9077186584472656
1761237247983742000,5.986741943359375,0.4335615932941437,-1.571298122406006,-2.2463042736053467
1761237248001781200,6.00478125,0.8060367107391357,-1.1658363342285156,-1.5070046186447144
1761237248019821000,6.022821044921875,0.6910412907600403,-0.5656611919403076,-0.6809620261192322
1761237248037856300,6.040856201171875,0.4877758920192718,-0.2403754740953445,-0.1806633919477462
1761237248055893800,6.058893798828125,0.3382666409015655,-0.2486221492290496,-0.1385136991739273
1761237248073931500,6.076931640625,0.3349068760871887,-0.266031801700592,-0.3882048726081848
1761237248091970300,6.09497021484375,0.3465133011341095,-0.2390010207891464,-0.4120286107063293
1761237248110007300,6.11300732421875,0.2296853363513946,-0.0445931628346443,-0.1973094791173935
1761237248128044800,6.131044921875,0.0221438650041818,0.2874121069908142,0.0123700210824608
1761237248146082600,6.14908251953125,-0.2950479090213775,0.5575672388076782,0.1010981947183609
1761237248164119800,6.167119873046875,-0.4897612035274505,0.5258022546768188,0.1282816976308822
1761237248182159000,6.1851591796875,-0.4150829315185547,0.2779437005519867,0.3509420752525329
1761237248200195600,6.203195556640625,-0.2315179258584976,0.1751656085252761,0.5338962078094482
1761237248218232800,6.22123291015625,-0.2220495194196701,0.1704314053058624,0.5911648273468018
1761237248236254700,6.239254638671875,-0.3132211565971374,0.3289509415626526,0.5902485251426697
1761237248254308400,6.257308349609375,-0.4445571899414062,0.4573853611946106,0.5455026626586914
1761237248272341500,6.275341552734375,-0.6328563690185547,0.446847915649414,0.4758640229701996
1761237248290384000,6.2933837890625,-0.8301658630371094,0.3836233615875244,0.3489567637443542
1761237248308423000,6.3114228515625,-1.0016663074493408,0.2038762718439102,0.0879645943641662
1761237248326458600,6.329458740234375,-1.0453431606292725,0.0310014113783836,-0.3074179291725158
1761237248344496600,6.34749658203125,-0.9439395070075988,-0.1310305893421173,-0.6713408827781677
1761237248362534700,6.36553466796875,-0.6879869699478149,-0.2225076705217361,-1.0186177492141724
1761237248380573200,6.3835732421875,-0.1272126883268356,-0.0256563406437635,-0.6203336715698242
1761237248398609700,6.401609619140625,0.619111955165863,0.3610213696956634,1.0083857774734497
1761237248416647400,6.4196474609375,1.2794572114944458,0.660803496837616,2.7991373538970947
1761237248434684700,6.4376845703125,1.1508700847625732,0.8799513578414917,4.099822044372559
1761237248452723700,6.4557236328125,1.028544306755066,0.7637342810630798,4.387234210968018
1761237248470760400,6.473760498046875,0.9813550114631652,1.5036448240280151,4.433812618255615
1761237248488798000,6.4917978515625,0.8872817754745483,1.8771889209747317,4.801400661468506
1761237248506835500,6.50983544921875,0.2606867551803589,0.5931501388549805,4.7361907958984375
1761237248524874200,6.527874267578125,-0.4767803251743316,0.2269364446401596,3.522859811782837
1761237248542911000,6.545910888671875,-1.133460521697998,-0.0548251569271087,1.9646953344345093
1761237248560949000,6.563948974609375,-1.5766432285308838,-0.3263547718524933,0.3856086730957031
1761237248578986000,6.581986083984375,-1.708895564079285,-0.4847215712070465,-0.7111998796463013
1761237248597025300,6.600025390625,-1.5940529108047483,-0.5621487498283386,-1.2541064023971558
1761237248615061500,6.6180615234375,-1.4871513843536377,-0.3717114925384521,-1.3095424175262451
1761237248633099300,6.636099365234375,-1.3652838468551636,-0.1601994037628173,-1.1148290634155271
1761237248651137000,6.654136962890625,-1.089020013809204,-0.2360994219779968,-1.1339186429977417
1761237248669174300,6.67217431640625,-0.7255551815032959,-0.3006984293460846,-1.1520918607711792
1761237248687213600,6.690213623046875,-0.4337143301963806,-0.389426589012146,-0.9769262671470642
1761237248705249800,6.708249755859375,-0.1204931661486625,-0.3465133011341095,-0.6623306274414062
1761237248723287300,6.726287353515625,0.1469130963087082,-0.2961169183254242,-0.2716823220252991
1761237248741326000,6.744326171875,0.309708684682846,-0.1918116807937622,0.0258090570569038
1761237248759363300,6.76236328125,0.4508185386657715,-0.0044287731871008,0.2017382532358169
1761237248777400600,6.780400634765625,0.5177083015441895,0.1149953827261924,0.3590360581874847
1761237248795438300,6.798438232421875,0.5499314665794373,0.2075414657592773,0.522595226764679
1761237248813481000,6.81648095703125,0.6104071140289307,-0.0474947728216648,0.3010038435459137
1761237248831513000,6.83451318359375,0.4889976382255554,-0.9030115604400636,-0.3785837292671203
1761237248849552000,6.8525517578125,-0.2153300046920776,-1.6543757915496826,-0.8197811841964722
1761237248867577900,6.870577880859375,-0.8773552179336548,-1.7070629596710205,-1.2447906732559204
1761237248885627400,6.88862744140625,-0.5352706909179688,-0.8959866166114807,-1.636966109275818
1761237248903651000,6.906651123046875,0.907898485660553,0.0685696229338646,-2.6276369094848637
1761237248921702000,6.924701904296875,2.7653870582580566,0.0781907513737678,-3.4804046154022217
1761237248939739000,6.94273876953125,3.539047718048096,0.3075706362724304,-3.947258472442627
1761237248957778400,6.9607783203125,2.6847527027130127,-0.2721404731273651,-2.9823968410491943
1761237248975814700,6.978814697265625,0.8046622276306152,-1.2368494272232056,-1.6232216358184814
1761237248993852200,6.99685205078125,-0.5337435007095337,-1.999820113182068,-0.6577491760253906
1761237249011890200,7.01489013671875,-0.588263213634491,-1.5931365489959717,-0.0459676086902618
1761237249029929000,7.032928955078125,0.3112358450889587,-0.1611157059669494,0.7293730974197388
1761237249047965400,7.05096533203125,1.0114401578903198,0.7764097452163696,2.02929425239563
1761237249066003500,7.06900341796875,1.2424999475479126,1.4645494222640991,3.3903021812438965
1761237249084041000,7.087041015625,1.283733367919922,1.8124371767044067,3.891975164413452
1761237249102079500,7.10507958984375,1.5034921169281006,2.0857994556427,3.4854443073272705
1761237249120116500,7.123116455078125,1.7693711519241333,1.4114041328430176,2.8351783752441406
1761237249138154000,7.141154052734375,1.897194743156433,0.6597344875335693,1.9147571325302124
1761237249156191500,7.15919140625,1.9740110635757449,0.1175915598869323,0.641255795955658
1761237249174218800,7.17721875,1.9000962972640991,-0.154396191239357,-0.64217209815979
1761237249192266500,7.1952666015625,1.619251012802124,-0.0907134860754013,-1.627497673034668
1761237249210304300,7.21330419921875,1.6026049852371216,0.6279694437980652,-2.068237066268921
1761237249228342300,7.23134228515625,1.728443264961243,1.7760907411575315,-0.7518224120140076
1761237249246381000,7.249381103515625,1.637271523475647,1.6931657791137695,0.2486221492290496
1761237249264417500,7.26741748046875,1.246165156364441,0.8365799784660339,0.3544545471668243
1761237249282455000,7.285455078125,1.1232284307479858,-1.447597861289978,0.3798054754734039
1761237249300493000,7.3034931640625,1.286634922027588,-3.975205659866333,0.9384417533874512
1761237249318531600,7.321531494140625,1.1786644458770752,-5.614614963531494,1.695914626121521
1761237249336566800,7.33956689453125,0.5141957998275757,-6.507699966430664,2.441781044006348
1761237249354606800,7.35760693359375,0.2941316068172455,-1.7371480464935305,2.8047878742218018
1761237249372631800,7.3756318359375,0.9178250432014464,2.2823452949523926,2.4358251094818115
1761237249390681900,7.393681884765625,0.9943358898162842,1.7739527225494385,1.9646953344345093
1761237249408706800,7.411706787109375,0.7881689071655273,0.042302418500185,1.5102115869522097
1761237249426756600,7.429756591796875,0.7644978761672974,-0.3585779070854187,0.783892810344696
1761237249444793900,7.4477939453125,0.7414376735687256,0.9923505783081056,0.2243402600288391
1761237249462833000,7.4658330078125,0.7490735054016113,1.9663752317428589,0.8739954233169556
1761237249480869400,7.483869384765625,1.1018482446670532,0.171500414609909,1.7737998962402344
1761237249498906600,7.50190673828125,0.593913733959198,-0.1513418704271316,1.6913331747055054
1761237249516945200,7.519945068359375,-0.0755945742130279,-0.2151772826910019,1.653459548950195
1761237249534983200,7.537983154296875,-0.4963280260562897,-0.5468770861625671,1.5975652933120728
1761237249553007900,7.5560078125,-0.5539020895957947,-0.9213374853134156,1.3839151859283447
1761237249571046700,7.574046630859375,-0.2929098904132843,-0.7225008606910706,1.1285735368728638
1761237249589095000,7.592094970703125,0.1154535338282585,0.0415388382971286,1.0157161951065063
1761237249607125200,7.610125244140625,0.3634648323059082,0.6259841322898865,0.9882272481918336
1761237249625170700,7.628170654296875,0.2770273983478546,0.7567093372344971,0.8906415104866028
1761237249643208400,7.64620849609375,0.0369573459029197,0.4599815309047699,0.7278459668159485
1761237249661246000,7.664245849609375,-0.2203696370124817,-0.1702786833047866,0.6824892163276672
1761237249679284500,7.682284423828125,-0.3239113092422485,-0.6931793093681335,1.1198687553405762
1761237249697321200,7.7003212890625,-0.1302670091390609,0.7841982841491699,0.8442157506942749
1761237249715359000,7.71835888671875,-0.1809688359498977,1.2510520219802856,0.1514945775270462
1761237249733396500,7.736396484375,-0.1780672222375869,0.1175915598869323,-0.3287982046604156
1761237266811757000,0.103757080078125,0.5152648091316223,-0.1821905523538589,0.0626136884093284
1761237266823062800,0.115062744140625,0.6111706495285034,-0.2168571650981903,0.2021963894367218
1761237266841103400,0.133103271484375,0.5940664410591125,0.0514653958380222,0.3692680299282074
1761237266859152600,0.151152587890625,0.4459316432476043,-0.0916297882795333,0.2877175211906433
1761237266877188900,0.16918896484375,0.1913535445928573,-0.3152064681053161,0.0551305897533893
1761237266895225600,0.1872255859375,0.147829383611679,-0.076052725315094,-0.2064724564552307
1761237266913264400,0.205264404296875,0.0751364231109619,0.0502436682581901,-0.3258966207504272
1761237266931301600,0.223301513671875,0.2952006161212921,0.0939205288887023,-0.3651446998119354
1761237266949339600,0.241339599609375,0.4737260043621063,0.3203988075256347,-0.4928155243396759
1761237266967377200,0.259377197265625,0.6241515874862671,0.5523748993873596,-0.5946773290634155
1761237266985414400,0.277414306640625,0.7451028823852539,0.7525860071182251,-0.5969680547714233
1761237267003453200,0.295453125,0.7973318696022034,0.6950119137763977,-0.7073819637298584
1761237267021490400,0.313490478515625,0.6864598393440247,0.5963571667671204,-0.7851145267486572
1761237267039526700,0.331526611328125,0.6088799238204956,0.6963863968849182,-0.6831000447273254
1761237267057567000,0.34956689453125,0.5120577812194824,0.5558874011039734,-0.5400048494338989
1761237267075603500,0.367603515625,0.1371392458677292,0.4612032473087311,-0.4992296099662781
1761237267093641000,0.385640869140625,-0.4302018582820892,0.598953366279602,-0.5818491578102112
1761237267111678500,0.403678466796875,-1.0719157457351685,0.6137668490409851,-0.570242702960968
1761237267129713000,0.421712890625,-1.2574660778045654,0.5994115471839905,-0.5199990272521973
1761237267147754200,0.439754150390625,-1.1869112253189087,0.6137668490409851,-0.4312708675861358
1761237267165792000,0.4577919921875,-1.2092077732086182,0.8985827565193176,-0.3704897761344909
1761237267183829500,0.47582958984375,-1.334587812423706,0.6818783283233643,-0.5639813542366028
1761237267201868000,0.493867919921875,-1.431257247924805,0.2422080636024475,-0.7234171628952026
1761237267219903200,0.5119033203125,-1.4966198205947876,0.2700024247169494,-0.7487680912017822
1761237267237943800,0.52994384765625,-1.5332717895507812,0.2330450862646103,-0.6247624158859253
1761237267255980500,0.54798046875,-1.431257247924805,0.0781907513737678,-0.5059491395950317
1761237267274017800,0.566017822265625,-1.2484558820724487,-0.0361937656998634,-0.4934264123439789
1761237267292050000,0.5840498046875,-1.0632109642028809,-0.0710130855441093,-0.4248567819595337
1761237267310088700,0.602088623046875,-0.9399688839912416,-0.1666134893894195,-0.4106541574001312
1761237267328131000,0.620131103515625,-0.912327229976654,-0.1679879426956176,-0.5439754724502563
1761237267346168800,0.6381689453125,-0.8655960559844971,-0.156686931848526,-0.5717698931694031
1761237267364206800,0.656206787109375,-0.8544477820396423,-0.2339613884687423,-0.5835290551185608
1761237267382244000,0.674244140625,-0.7787004709243774,-0.3397938013076782,-0.7519751191139221
1761237267400281900,0.69228173828125,-0.7211264371871948,-0.3013092875480652,-0.9909761548042296
1761237267418320000,0.71031982421875,-0.7473936080932617,-0.2764165103435516,-1.217149019241333
1761237267436357000,0.728357177734375,-0.736245334148407,-0.3793473243713379,-1.392620086669922
1761237267454395000,0.746394775390625,-0.6979135274887085,-0.5858197808265686,-1.3603968620300293
1761237267472433000,0.764432861328125,-0.5929974317550659,-0.6004805564880371,-1.2030991315841677
1761237267490470100,0.78247021484375,-0.3681990206241607,-0.4735732674598694,-1.007622241973877
1761237267508508200,0.800508056640625,-0.142789751291275,-0.2828305959701538,-0.8309294581413269
1761237267526546000,0.8185458984375,0.0494800843298435,-0.1537853181362152,-0.6881396770477295
1761237267544583200,0.836583251953125,0.2177734673023224,-0.1091921627521514,-0.6091853380203247
1761237267562621000,0.854620849609375,0.2964223623275757,-0.1499674171209335,-0.5079344511032104
1761237267580658700,0.87265869140625,0.1485929638147354,-0.2061670273542404,-0.4065308272838592
1761237267598696400,0.890696533203125,-0.08460483700037,-0.1855503171682357,-0.2791654169559479
1761237267616734500,0.908734375,-0.2266310006380081,-0.1004873365163803,-0.1394299864768982
1761237267634765000,0.92676513671875,-0.2646573781967163,-0.152563601732254,0.0826195254921913
1761237267652809200,0.944809326171875,-0.4395175576210022,-0.2437352389097213,0.2461786866188049
1761237267670847500,0.962847412109375,-0.5655084848403931,-0.1346957832574844,0.4442517459392547
1761237267688885000,0.980885009765625,-0.6290385127067566,-0.0801760628819465,0.6815729141235352
1761237267706922000,0.998921875,-0.7301366925239563,0.1285871267318725,0.9715811610221864
1761237267724961300,1.016961181640625,-0.7709119319915771,0.4718933999538421,1.1659890413284302
1761237267742997800,1.034997802734375,-0.6142250299453735,0.5468770861625671,1.5034921169281006
1761237267761035500,1.053035400390625,-0.5609270334243774,0.408821552991867,1.7661641836166382
1761237267779073300,1.0710732421875,-0.4689917862415313,0.3683517575263977,1.8000671863555908
1761237267797110800,1.08911083984375,-0.2321287989616394,0.2364048510789871,1.588555097579956
1761237267815148800,1.107148681640625,0.0174096599221229,0.2344195395708084,1.313360333442688
1761237267833186800,1.125186767578125,0.1180497109889984,0.3740022480487823,1.283122420310974
1761237267851224000,1.14322412109375,0.1044579595327377,0.244804248213768,1.4367550611495972
1761237267869262000,1.161261962890625,0.0024434609804302,0.0421497002243995,1.3319916725158691
1761237267887299000,1.179299072265625,0.036499198526144,0.0195476878434419,1.1575896739959717
1761237267905337900,1.197337890625,0.4193589985370636,0.0765108689665794,0.6397286057472229
1761237267923375400,1.215375244140625,1.0821478366851809,-0.0485637858510017,-0.66584312915802
1761237267941412600,1.23341259765625,1.6543757915496826,-0.2858849465847015,-2.104278087615967
1761237267959438300,1.251438232421875,2.0248656272888184,-0.5088507533073425,-1.8744399547576904
1761237267977488400,1.26948828125,1.524261474609375,-0.7898487448692322,0.6018549799919128
1761237267995525600,1.287525634765625,1.0319041013717651,-1.2599095106124878,2.3321306705474854
1761237268013563600,1.305563720703125,0.5852088928222656,-1.5864170789718628,2.894432306289673
1761237268031601400,1.323601318359375,-0.0406225398182868,-1.8409950733184812,3.135571241378784
1761237268049635000,1.341635009765625,-0.2864958047866821,-1.3581061363220217,2.9191722869873047
1761237268067676400,1.359676513671875,-0.1727221459150314,-0.1948660165071487,1.782657504081726
1761237268085714400,1.37771435546875,0.1175915598869323,0.3254384696483612,-0.0371100641787052
1761237268103752000,1.395751953125,0.3275764882564544,0.0642935633659362,-1.273043155670166
1761237268121789700,1.413789794921875,0.4109596014022827,-0.0937678143382072,-1.3524556159973145
1761237268139822600,1.431822509765625,0.4266893863677978,0.0500909499824047,-0.9569203853607178
1761237268157865000,1.449864990234375,0.5955936312675476,0.2038762718439102,-1.0125091075897217
1761237268175902700,1.46790283203125,0.7307475209236145,0.1510364264249801,-1.2258538007736206
1761237268193940500,1.4859404296875,0.7605272531509399,0.0245873257517814,-1.220966935157776
1761237268211978000,1.50397802734375,0.7840455174446106,0.1020144969224929,-0.8756753206253052
1761237268230015500,1.522015380859375,0.6875288486480713,0.0849102661013603,-0.3254384696483612
1761237268248053500,1.540053466796875,0.3692680299282074,0.0925460830330848,0.1661553531885147
1761237268266091300,1.55809130859375,0.2496911734342575,0.0442877300083637,0.3804163336753845
1761237268284128800,1.576128662109375,0.2290744632482528,0.0507018156349659,0.4398229718208313
1761237268302166800,1.594166748046875,0.3260493278503418,0.0838412567973136,0.3504839241504669
1761237268320204800,1.612204833984375,0.442266434431076,0.0784961804747581,0.1921171247959137
1761237268338242000,1.630241943359375,0.3973678350448608,0.0029016099870204,0.0329867228865623
1761237268356279800,1.64827978515625,0.231365218758583,-0.0594066455960273,-0.1328631937503814
1761237268374317300,1.6663173828125,0.0456621758639812,-0.1383609771728515,-0.2504547536373138
1761237268392343600,1.684343505859375,-0.0862847194075584,-0.1592831164598465,-0.3344487249851227
1761237268410381300,1.70238134765625,-0.1177442744374275,-0.0934623852372169,-0.3874412775039673
1761237268428432000,1.720431884765625,0.0047342055477201,0.0722348168492317,-0.4065308272838592
1761237268446468000,1.738468017578125,0.0242818929255008,0.0714712366461753,-0.1679879426956176
1761237268464505600,1.756505615234375,0.1009454801678657,-0.0459676086902618,0.3677408695220947
1761237268482543600,1.774543701171875,0.2092213481664657,-0.2606867551803589,0.7846564054489136
1761237268500581400,1.792581298828125,-0.1269072592258453,-0.3671300113201141,0.4902193546295166
1761237268518619100,1.810619140625,-0.7156286239624023,-0.2890919744968414,-0.4134030640125274
1761237268536656600,1.82865673828125,-0.788627028465271,0.206777885556221,-1.6691893339157104
1761237268554674000,1.846673828125,-0.737772524356842,0.2612976133823395,-2.191173553466797
1761237268572734000,1.86473388671875,-0.6317873597145081,-0.2344195395708084,-2.216066360473633
1761237268590769700,1.882769775390625,0.0899499058723449,0.5335907936096191,-1.331380844116211
1761237268608807400,1.900807373046875,0.8684976696968079,0.5480988621711731,-0.7770205736160278
1761237268626833200,1.918833251953125,0.4715879559516907,-1.0395399332046509,-1.5680910348892212
1761237268644883200,1.93688330078125,-0.7709119319915771,-1.9624046087265012,-2.6532931327819824
1761237268662908700,1.95490869140625,-1.2234103679656982,-1.307404398918152,-2.323273181915283
1761237268680958500,1.97295849609375,-0.9949467778205872,0.0386372283101081,-1.052215337753296
1761237268698996200,1.990996337890625,-0.485027015209198,0.9251554012298584,-0.8985827565193176
1761237268717033700,2.00903369140625,-0.0691804885864257,1.034194827079773,-1.0870347023010254
1761237268735071200,2.0270712890625,-0.1585195362567901,0.5444336533546448,-1.0894781351089478
1761237268753109000,2.04510888671875,-0.6082690954208374,0.1919644027948379,-0.9251554012298584
1761237268771146500,2.063146484375,-0.6440047025680542,0.4195117056369781,-0.7609853744506836
1761237268789184500,2.0811845703125,-0.1463022232055664,0.669966459274292,-0.7276932001113892
1761237268807222300,2.09922216796875,-0.0578794814646244,0.3491095006465912,-0.5487096905708313
1761237268825257500,2.117257568359375,-0.3897320330142975,-0.2353358417749405,-0.3527746796607971
1761237268843298300,2.13529833984375,-0.6688974499702454,-0.5073235630989075,-0.3413209617137909
1761237268861335600,2.15333544921875,-0.7475463151931763,-0.4059199690818786,-0.2922990322113037
1761237268879372800,2.171372802734375,-0.6653849482536316,-0.1015563458204269,-0.2606867551803589
1761237268897410300,2.189410400390625,-0.5097670555114746,0.1276708394289016,-0.285121351480484
1761237268915448300,2.2074482421875,-0.3779728710651397,0.3034473061561584,-0.2982549667358398
1761237268933485800,2.22548583984375,-0.2040289938449859,0.3382666409015655,-0.3536909818649292
1761237268951523800,2.24352392578125,0.0560468845069408,0.1275181174278259,-0.4198171496391296
1761237268969561600,2.2615615234375,0.2840523421764374,-0.1342376321554184,-0.5287038683891296
1761237268987599400,2.279599365234375,0.3411682248115539,-0.2461786866188049,-0.7472409009933472
1761237269005636900,2.297636962890625,0.1482875347137451,-0.3182607889175415,-0.940121591091156
1761237269023675000,2.3156748046875,-0.247553139925003,-0.2612976133823395,-0.9121745228767396
1761237269041712400,2.33371240234375,-0.5505422949790955,-0.0595593601465225,-0.6249151229858398
1761237269059745000,2.3517451171875,-0.6073527932167053,0.3620903789997101,-0.3384193480014801
1761237269077789200,2.3697890625,-0.4864014387130737,0.633009135723114,-0.1285871267318725
1761237269095825200,2.3878251953125,-0.4491386711597442,0.5690209865570068,-0.2289217561483383
1761237269113862700,2.405862548828125,-0.4062253832817077,0.3842342495918274,-0.3891211748123169
1761237269131900700,2.423900634765625,-0.2872593700885772,0.0789543315768241,-0.466395616531372
1761237269149938400,2.4419384765625,-0.2125810980796814,-0.1452332139015197,-0.5777258276939392
1761237269167976200,2.45997607421875,-0.1204931661486625,-0.1896736621856689,-0.6580545902252197
1761237269186014000,2.478013916015625,0.0676533281803131,-0.1389718502759933,-0.588874101638794
1761237269204051700,2.4960517578125,0.2150245606899261,-0.0661261603236198,-0.4918992519378662
1761237269222087700,2.514087646484375,0.1676825135946273,-0.0936150997877121,-0.3978259861469269
1761237269240128500,2.53212841796875,0.1049161031842231,-0.0766635909676551,-0.3121521472930908
1761237269258164500,2.55016455078125,0.1962404549121856,0.0213802829384803,-0.1873829066753387
1761237269276202000,2.568201904296875,0.249843880534172,0.0922406539320945,-0.078343465924263
1761237269294240000,2.586239990234375,0.2296853363513946,0.1803579628467559,0.0334448739886283
1761237269312278000,2.604278076171875,0.1634064465761184,0.2122756689786911,0.271224170923233
1761237269330315300,2.622315185546875,0.1069014146924018,0.2125810980796814,0.5091561675071716
1761237269348353300,2.640353271484375,0.0832303911447525,0.2069306075572967,0.5633704662322998
1761237269366390800,2.658390869140625,0.140957161784172,0.2729040384292602,0.4882340431213379
1761237269384428300,2.67642822265625,0.2217440903186798,0.2927571833133697,0.3967569768428802
1761237269402466000,2.694466064453125,0.1631010174751281,0.3153591752052307,0.3434589803218841
1761237269420492000,2.712491943359375,0.0980438739061355,0.2813034355640411,0.3769038617610931
1761237269438530000,2.730530029296875,0.0583376325666904,0.2785545587539673,0.4271475374698639
1761237269456579300,2.748579345703125,0.0337503030896186,0.235946699976921,0.4709770977497101
1761237269474605000,2.76660498046875,0.0746782794594764,0.2247984111309051,0.4612032473087311
1761237269492655000,2.784655029296875,0.1389718502759933,0.1950187236070633,0.4198171496391296
1761237269510692600,2.802692626953125,0.105221539735794,0.1603521257638931,0.3445279896259308
1761237269528730000,2.820730224609375,0.0271835029125213,0.116827979683876,0.2632829248905182
1761237269546767600,2.838767578125,-0.0009162978967651,0.1197295859456062,0.2066251635551452
1761237269564805000,2.85680517578125,-0.0184786729514598,0.081550508737564,0.2133446931838989
1761237269582843000,2.8748427734375,-0.0061086523346602,0.0490219369530677,0.2480112910270691
1761237269600880600,2.892880615234375,0.0251981914043426,-0.0155770638957619,0.2591595947742462
1761237269618918700,2.910918701171875,0.0366519130766391,-0.0416915528476238,0.3316998183727264
1761237269636956200,2.9289560546875,0.0378736443817615,-0.0284052342176437,0.4570799171924591
1761237269654993700,2.94699365234375,0.0812450796365737,-0.0618501044809818,0.5838344693183899
1761237269673031700,2.96503173828125,0.1449277848005294,-0.0656680166721344,0.6769914031028748
1761237269691069200,2.983069091796875,0.235488548874855,-0.01328631862998,0.759916365146637
1761237269709107500,3.001107421875,0.2600758671760559,0.0517708286643028,0.7947356700897217
1761237269727145200,3.019145263671875,0.308792382478714,-0.0224492978304624,0.8802568316459656
1761237269745181200,3.03718115234375,0.1982257664203643,-0.3782783150672912,1.0212140083312988
1761237269763220500,3.055220458984375,-0.1296561509370803,-0.7254024744033813,1.111469268798828
1761237269781257500,3.073257568359375,-0.3287982046604156,-0.5432119369506836,1.013578176498413
1761237269799295200,3.091295166015625,-0.2681698501110077,-0.2420553565025329,0.5592471361160278
1761237269817333200,3.109333251953125,-0.1882992088794708,-0.1809688359498977,0.2076941877603531
1761237269835370800,3.127370849609375,-0.1663080602884292,-0.1696678251028061,0.3607159256935119
1761237269853408500,3.145408447265625,-0.1382082551717758,-0.1293507218360901,0.9210320711135864
1761237269871446300,3.1634462890625,-0.4592179358005523,-0.1449277848005294,1.534340739250183
1761237269889467100,3.181467041015625,-0.8274169564247131,0.1777617931365966,1.856266736984253
1761237269907519700,3.199519775390625,-0.7797694802284241,0.6710354685783386,1.9153679609298704
1761237269925559300,3.217559326171875,-0.6621779203414917,0.9558513760566713,1.7988454103469849
1761237269943596000,3.235595947265625,-0.5879577994346619,1.0375546216964722,1.3981177806854248
1761237269961633500,3.253633544921875,-0.1838704347610473,0.9230173826217652,0.8686503767967224
1761237269979671300,3.27167138671875,0.1204931661486625,0.5157229900360107,0.7710646390914917
1761237269997707800,3.289707763671875,0.2032654136419296,0.1058324053883552,1.1151344776153564
1761237270015747800,3.307747802734375,0.3521638214588165,-0.4809036552906036,1.4756977558135986
1761237270033784300,3.325784423828125,0.251218318939209,-1.3837624788284302,1.6925548315048218
1761237270051822000,3.343822021484375,-0.3011565804481506,-1.860695481300354,2.121840476989746
1761237270069859600,3.361859619140625,-0.9414960741996764,-1.8700112104415891,2.863736152648926
1761237270087897900,3.37989794921875,-1.50211763381958,-1.4656184911727903,3.575546979904175
1761237270105935400,3.397935302734375,-1.034500241279602,-0.4415028691291809,4.447556972503662
1761237270123973000,3.41597314453125,0.0210748501121997,1.0068585872650146,3.953672647476196
1761237270142007000,3.434007080078125,0.0658207312226295,0.7463245987892151,1.6365079879760742
1761237270160043800,3.452043701171875,0.0279470849782228,-0.5520694851875305,-0.4702135324478149
1761237270178090800,3.4700908203125,0.1843285858631134,-1.132238745689392,-1.251968264579773
1761237270196123400,3.488123291015625,0.470518946647644,-0.7171558141708374,-0.8622363209724426
1761237270214161400,3.506161376953125,0.4908302128314972,0.1482875347137451,-0.3245221674442291
1761237270232198700,3.52419873046875,0.385303258895874,0.7980954647064209,-0.207236036658287
1761237270250236700,3.542236572265625,0.3208569586277008,1.1397218704223633,-0.366213709115982
1761237270268274200,3.560274169921875,0.3981314301490783,1.1696542501449585,-0.598647952079773
1761237270286312400,3.5783125,0.7151705026626587,0.8929322957992554,-1.031598687171936
1761237270304350200,3.59635009765625,0.9666942358016968,0.4230241775512695,-1.598023533821106
1761237270322382800,3.6143828125,1.0512990951538086,-0.0293215326964855,-1.976149082183838
1761237270340425200,3.63242529296875,1.0740537643432615,-0.2602286040782928,-1.921629309654236
1761237270358462700,3.650462646484375,1.0436632633209229,-0.2715296149253845,-1.4955508708953855
1761237270376500500,3.66850048828125,1.0366383790969849,-0.2489275932312011,-0.8959866166114807
1761237270394538500,3.68653857421875,0.9573785662651062,-0.3581197559833526,-0.4022547602653503
1761237270412576300,3.704576171875,0.7347181439399719,-0.3895792961120605,-0.2399173229932785
1761237270430611200,3.722611083984375,0.5302310585975647,-0.4195117056369781,-0.1516472995281219
1761237270448651500,3.740651611328125,0.2571742534637451,-0.5002986192703247,-0.007177666760981
1761237270466689300,3.758689208984375,-0.093156948685646,-0.5354233980178833,0.1123992055654525
1761237270484726800,3.776726806640625,-0.4184426963329315,-0.5734497308731079,0.2194533348083496
1761237270502764800,3.794764892578125,-0.6123924255371094,-0.5400048494338989,0.3480404615402221
1761237270520801800,3.8128017578125,-0.6664539575576782,-0.4214970171451568,0.4908302128314972
1761237270538843000,3.8308427734375,-0.9772316813468932,-0.1327104717493057,0.0517708286643028
1761237270556878000,3.848878173828125,-1.662469744682312,-0.3689626157283783,-0.7773260474205017
1761237270574916900,3.866916748046875,-1.6236798763275146,-0.9111055135726928,-2.476294994354248
1761237270592954000,3.8849541015625,-0.0209221355617046,-0.8874344825744629,-3.793473243713379
1761237270610991600,3.90299169921875,0.7113525867462158,-0.3167336285114288,-3.93351411819458
1761237270629018600,3.9210185546875,0.2532036304473877,0.0137444678694009,-3.107318878173828
1761237270647067400,3.9390673828125,-0.6075055003166199,0.2267837226390838,-1.7777706384658811
1761237270665105200,3.957105224609375,-0.9246972799301147,0.2874121069908142,-0.7299839854240417
1761237270683142700,3.975142578125,-0.6626361012458801,0.076052725315094,-0.3978259861469269
1761237270701180400,3.993180419921875,-0.1107193231582641,-0.3075706362724304,-0.5393940210342407
1761237270719217700,4.0112177734375,0.2906191349029541,-0.4074471294879913,-0.9900598526000975
1761237270737255400,4.02925537109375,0.3962988257408142,-0.3072652220726013,-1.49906325340271
1761237270755292700,4.047292724609375,0.3758348524570465,-0.2122756689786911,-1.7134770154953003
1761237270773331500,4.06533154296875,0.2057088762521743,-0.0849102661013603,-1.5745052099227903
1761237270791369000,4.083368896484375,0.0029016099870204,0.2371684312820434,-1.29075825214386
1761237270809406500,4.101406494140625,-0.0835358202457428,0.5273294448852539,-1.0138835906982422
1761237270827444200,4.1194443359375,-0.08460483700037,0.5836817622184753,-0.6508769392967224
1761237270845482200,4.137482177734375,-0.1360702365636825,0.4589125216007232,-0.2638937830924988
1761237270863519500,4.15551953125,-0.197920337319374,0.2922990322113037,0.0029016099870204
1761237270881557200,4.17355712890625,-0.1660026311874389,0.2813034355640411,0.0255036242306232
1761237270899594800,4.1915947265625,0.0184786729514598,0.3833179473876953,0.0259617734700441
1761237270917632500,4.209632568359375,0.1125519201159477,0.4332561790943146,0.0626136884093284
1761237270935670300,4.227670166015625,0.0694859251379966,0.4334088861942291,0.1516472995281219
1761237270953708000,4.2457080078125,0.0510072484612464,0.2900082767009735,0.3593414723873138
1761237270971745500,4.26374560546875,0.0047342055477201,0.1988366395235061,0.4356996417045593
1761237270989779700,4.28177978515625,0.0048869219608604,0.1814269721508026,0.4077525436878204
1761237271007821300,4.2998212890625,0.0036651915870606,0.1542434692382812,0.3640756905078888
1761237271025857300,4.317857177734375,0.0128281703218817,0.1869247704744339,0.2848159074783325
1761237271043896800,4.335896728515625,0.0835358202457428,0.2365575730800628,0.2321287989616394
1761237271061935900,4.353935791015625,0.1612684279680252,0.2255619913339615,0.2591595947742462
1761237271079971600,4.3719716796875,0.1572978049516677,0.2257147133350372,0.2608394622802734
1761237271098009300,4.39000927734375,0.0823140889406204,0.1530217379331588,0.1815796941518783
1761237271116047000,4.408047119140625,0.0019853119738399,0.1282816976308822,0.1488984078168869
1761237271134084600,4.426084716796875,-0.0436768643558025,0.107512280344963,0.147829383611679
1761237271152123000,4.444122802734375,-0.0357356183230876,0.1989893466234207,0.1252273768186569
1761237271170160400,4.462160400390625,0.0719293802976608,0.2629774808883667,0.1333213448524475
1761237271188198400,4.480198486328125,0.219300627708435,0.2791654169559479,0.2107485085725784
1761237271206235600,4.498235595703125,0.2362521290779113,0.3094032406806946,0.2779437005519867
1761237271224273400,4.5162734375,0.235488548874855,0.3222314119338989,0.3544545471668243
1761237271242311400,4.5343115234375,0.2217440903186798,0.3393356502056122,0.4161519408226013
1761237271260349000,4.552348876953125,0.128892570734024,0.3248275816440582,0.4816672503948211
1761237271278386400,4.570386474609375,-0.0131336031481623,0.404240071773529,0.4980078935623169
1761237271296412400,4.588412353515625,-0.0583376325666904,0.4778493344783783,0.6076582074165344
1761237271314462000,4.6064619140625,-0.0445931628346443,0.447458803653717,0.6101016402244568
1761237271332499500,4.62449951171875,-0.0943786799907684,0.3824016451835632,0.5073235630989075
1761237271350537200,4.642537109375,-0.1420261710882187,0.2904664278030395,0.3439171314239502
1761237271368575200,4.6605751953125,-0.1569923609495163,0.1915062516927719,0.1963931769132614
1761237271386612500,4.678612548828125,-0.1467603743076324,0.1322523206472396,0.1650863289833068
1761237271404650200,4.696650146484375,-0.1632537394762039,0.0923933684825897,0.1328631937503814
1761237271422688300,4.714688232421875,-0.1429424732923507,0.036499198526144,0.0218384321779012
1761237271440726000,4.73272607421875,-0.05283984541893,0.0303905457258224,-0.0849102661013603
1761237271458763500,4.750763427734375,0.0061086523346602,0.0629191175103187,-0.0795651972293853
1761237271476801000,4.768801025390625,0.0093156946823,0.066737025976181,0.0290160998702049
1761237271494838500,4.786838623046875,0.0267253536731004,0.0371100641787052,0.1950187236070633
1761237271512876800,4.804876708984375,-0.0157297793775796,0.056657750159502,0.2996293902397156
1761237271530912800,4.822912841796875,-0.0656680166721344,0.1313360333442688,0.2935207486152649
1761237271548953600,4.84095361328125,-0.0232128798961639,0.1485929638147354,0.261450320482254
1761237271566989600,4.858989501953125,0.0604756586253643,0.1203404515981674,0.2173153162002563
1761237271585027000,4.877027099609375,0.1375973969697952,0.0772744566202163,0.1678352206945419
1761237271603064800,4.89506494140625,0.1959350258111953,0.0865901485085487,0.0983493030071258
1761237271621102800,4.913102783203125,0.2612976133823395,0.1482875347137451,0.0959058403968811
1761237271639140600,4.931140625,0.3245221674442291,0.1713477075099945,0.197004035115242
1761237271657178000,4.94917822265625,0.3352122902870178,0.1530217379331588,0.3512475192546844
1761237271675215400,4.96721533203125,0.2858849465847015,0.11636982858181,0.4558582007884979
1761237271693252000,4.985252197265625,0.247094988822937,0.0821613743901252,0.5154175758361816
1761237271711292700,5.003292724609375,0.2814561724662781,-0.0245873257517814,0.5366451144218445
1761237271729327900,5.021327880859375,0.3245221674442291,-0.102472648024559,0.565203070640564
1761237271747367700,5.03936767578125,0.3359758853912353,-0.23273965716362,0.6217080950737
1761237271765404200,5.057404052734375,0.3107776939868927,-0.3449861407279968,0.6817256212234497
1761237271783442000,5.07544189453125,0.2816088795661926,-0.4291328489780426,0.7832819819450378
1761237271801479400,5.0934794921875,0.3013092875480652,-0.5036584138870239,0.9312640428543092
1761237271819517400,5.111517333984375,0.2996293902397156,-0.5564982295036316,0.9873109459877014
1761237271837555000,5.129554931640625,0.2709187269210815,-0.4967861473560333,1.0144944190979004
1761237271855592400,5.147592529296875,0.2113593816757202,-0.437226802110672,1.0998629331588743
1761237271873631000,5.165630859375,0.0546724386513233,-0.4415028691291809,1.1655309200286863
1761237271891668000,5.18366796875,-0.1392772793769836,-0.3914119005203247,1.1352930068969729
1761237271909702700,5.20170263671875,-0.2437352389097213,-0.2733621895313263,1.06351637840271
1761237271927743700,5.21974365234375,-0.1855503171682357,-0.1104138940572738,1.0415252447128296
1761237271945781200,5.23778125,-0.0688750594854354,-0.0377209298312664,0.9532552361488342
1761237271963812400,5.255812255859375,0.036499198526144,-0.0343611687421798,0.7015787363052368
1761237271981857000,5.27385693359375,0.1299615800380706,0.3207042515277862,0.6317873597145081
1761237271999894500,5.29189453125,0.3530801236629486,0.8132143616676331,0.8976664543151855
1761237272017931800,5.309931884765625,0.6362161636352539,1.2137892246246338,1.2903001308441162
1761237272035968500,5.327968505859375,1.0114401578903198,1.4220943450927734,1.3310753107070925
1761237272054006000,5.346006103515625,1.329700946807861,1.3697125911712646,0.8335255980491638
1761237272072039700,5.364039794921875,1.3833043575286863,1.0086911916732788,-0.0575740486383438
1761237272090081800,5.382081787109375,1.1163562536239624,0.6285803318023682,-0.7588473558425903
1761237272108119600,5.40011962890625,0.91049462556839,-0.0219911485910415,-0.8448266386985779
1761237272126157300,5.4181572265625,0.8486445546150208,-0.8176431059837341,-0.2817615866661072
1761237272144192000,5.43619189453125,0.7875580191612244,-1.32221782207489,0.6550002694129944
1761237272162233900,5.45423388671875,0.6801984310150146,-1.4486669301986694,1.429577350616455
1761237272180271900,5.47227197265625,0.4975497424602508,-1.163851022720337,1.6478090286254885
1761237272198306600,5.490306640625,0.4161519408226013,-0.7307475209236145,1.1233811378479004
1761237272216346600,5.5083466796875,0.442266434431076,-0.2296853363513946,0.0604756586253643
1761237272234382800,5.5263828125,0.5300782918930054,-0.0493273697793483,-0.8875871896743774
1761237272252420900,5.5444208984375,0.4621195495128631,-0.042302418500185,-1.3823879957199097
1761237272270450700,5.56245068359375,0.2281581759452819,-0.051312681287527,-1.3394747972488403
1761237272288496400,5.580496337890625,-0.0201585534960031,-0.0479529201984405,-0.8509352803230286
1761237272306534100,5.5985341796875,-0.194713294506073,0.0995710343122482,-0.2020436823368072
1761237272324572000,5.616572021484375,-0.2180788964033126,0.3347541689872741,0.333379715681076
1761237272342606000,5.634606201171875,-0.126143679022789,0.6104071140289307,0.5655084848403931
1761237272360646400,5.652646484375,0.066737025976181,0.7622070908546448,0.5467243790626526
1761237272378686000,5.67068603515625,0.2060143053531646,0.7492262125015259,0.3804163336753845
1761237272396723700,5.6887236328125,0.2403754740953445,0.5186246037483215,0.0609338097274303
1761237272414761000,5.706760986328125,0.2484694421291351,0.2295326143503189,-0.2890919744968414
1761237272432798700,5.724798828125,0.1915062516927719,-0.1039998084306716,-0.4651738703250885
1761237272450836500,5.74283642578125,0.1201877370476722,-0.3439171314239502,-0.5400048494338989
1761237272468862500,5.760862548828125,0.0256563406437635,-0.5529857873916626,-0.5766568183898926
1761237272486912000,5.778912109375,-0.1989893466234207,-0.5821545720100403,-0.6467535495758057
1761237272504950000,5.796949951171875,-0.5590944290161133,-0.540921151638031,-0.611934244632721
1761237272522987500,5.814987548828125,-1.06351637840271,-0.5377141237258911,-0.265573650598526
1761237272541012500,5.833012451171875,-1.5428929328918457,-0.5890268087387085,0.1499674171209335
1761237272559051500,5.851051513671875,-1.329853653907776,-0.6126978397369385,0.0288633834570646
1761237272577101000,5.86910107421875,-0.4193589985370636,-0.294437050819397,-1.4485142230987549
1761237272595137800,5.8871376953125,0.2243402600288391,0.252134621143341,-2.4379632472991943
1761237272613176000,5.905176025390625,0.50335294008255,0.3908010423183441,-2.383596181869507
1761237272631197700,5.92319775390625,0.4622722864151001,0.061391957104206,-2.205070734024048
1761237272649251300,5.941251220703125,0.1003346145153045,-0.2748893499374389,-1.990657091140747
1761237272667289000,5.9592890625,-0.2739730477333069,-0.6192646622657776,-1.811673641204834
1761237272685326000,5.977326171875,-0.483957976102829,-0.6733261942863464,-1.5086843967437744
1761237272703364900,5.99536474609375,-0.3504839241504669,-0.1299615800380706,-1.184773087501526
1761237272721401900,6.01340185546875,-0.1475239545106887,0.4086688458919525,-1.2990049123764038
1761237272739439400,6.031439453125,-0.096211276948452,0.6455318331718445,-1.395827054977417
1761237272757466600,6.049466552734375,-0.2385428845882415,0.531147301197052,-1.275639295578003
1761237272775515400,6.067515380859375,-0.3358231782913208,0.4547891616821289,-1.1533136367797852
1761237272793553200,6.08555322265625,-0.3568980097770691,0.4386012554168701,-1.1033753156661987
1761237272811590400,6.10359033203125,-0.252745509147644,0.3985895812511444,-0.9636399149894714
1761237272829632000,6.121632080078125,-0.1513418704271316,0.2939788997173309,-0.6676757335662842
1761237272847666000,6.139666015625,-0.1325577646493911,0.2394591718912124,-0.3591887652873993
1761237272865703700,6.15770361328125,-0.1314887404441833,0.1273654103279113,-0.1501201391220092
1761237272883741000,6.175740966796875,-0.0972802937030792,0.0004581489483825,-0.0749837085604667
1761237272901778700,6.19377880859375,-0.0830776765942573,-0.1096503138542175,-0.0432187169790267
1761237272919816700,6.211816650390625,-0.1918116807937622,-0.2138028293848037,0.00534507073462
1761237272937854200,6.229854248046875,-0.370947927236557,-0.1976149082183838,0.0369573459029197
1761237272955892000,6.24789208984375,-0.470060795545578,-0.1182024255394935,0.1372919678688049
1761237272973930000,6.265929931640625,-0.5166392922401428,-0.0448985956609249,0.3202461004257202
1761237272991967500,6.283967529296875,-0.5134322643280029,0.0009162978967651,0.490066647529602
1761237273010000400,6.30200048828125,-0.5109887719154358,0.041233405470848,0.6246097087860107
1761237273028043000,6.32004296875,-0.5488623976707458,0.107512280344963,0.7330383062362671
1761237273046080500,6.33808056640625,-0.5102251768112183,0.18539759516716,0.7875580191612244
1761237273064118500,6.356118408203125,-0.4016439020633697,0.2435825169086456,0.7906123399734497
1761237273082155800,6.37415576171875,-0.2675589919090271,0.1763873398303985,0.8414669036865234
1761237273100193300,6.392193359375,-0.2157881408929824,0.1073595657944679,0.8536841869354248
1761237273118231300,6.410231201171875,-0.1977676302194595,0.1139263659715652,0.7568620443344116
1761237273136267000,6.42826708984375,-0.1363756656646728,0.0720821022987365,0.5305364727973938
1761237273154306600,6.446306640625,-0.1128573566675186,-0.0183259565383195,0.3155119121074676
1761237273172344300,6.46434423828125,-0.1240056455135345,-0.0775798857212066,0.2417499274015426
1761237273190382000,6.482382080078125,-0.1740965992212295,-0.0384845100343227,0.2730567753314972
1761237273208419300,6.50041943359375,-0.2374738603830337,0.0986547395586967,0.3451388776302337
1761237273226457600,6.51845751953125,-0.2525927722454071,0.1510364264249801,0.2339613884687423
1761237273244495400,6.536495361328125,-0.2203696370124817,0.1430951803922653,0.0679587572813034
1761237273262532900,6.554532958984375,-0.1383609771728515,0.0685696229338646,-0.1061378344893455
1761237273280570600,6.572570556640625,-0.0742201283574104,-0.051312681287527,-0.2209804952144622
1761237273298596400,6.590596435546875,-0.0661261603236198,-0.0659734457731247,-0.2127338200807571
1761237273316646000,6.60864599609375,-0.1320996135473251,-0.058184914290905,-0.0975857228040695
1761237273334683400,6.626683349609375,-0.2382374405860901,-0.022754730656743,0.0242818929255008
1761237273352721200,6.64472119140625,-0.2887865304946899,0.0247400421649217,0.0265726372599601
1761237273370759000,6.662759033203125,-0.2709187269210815,0.0749837085604667,-0.0937678143382072
1761237273388796700,6.680796630859375,-0.2261728644371032,0.0867428630590438,-0.1372919678688049
1761237273406834200,6.698834228515625,-0.1779145002365112,0.0525344125926494,-0.0911716371774673
1761237273424872200,6.7168720703125,-0.1325577646493911,0.0032070425804704,-0.0510072484612464
1761237273442910000,6.734909912109375,-0.1227839142084121,-0.0238237436860799,-0.0484110713005065
1761237273460947500,6.752947509765625,-0.1313360333442688,0.0155770638957619,-0.0812450796365737
1761237273478985000,6.77098486328125,-0.1093448773026466,0.0061086523346602,-0.126143679022789
1761237273497023000,6.78902294921875,-0.0620028227567672,0.0207694191485643,-0.1375973969697952
1761237273515059000,6.807058837890625,-0.0313068442046642,0.0331394411623477,-0.0618501044809818
1761237273533098000,6.825097900390625,0.0035124751739203,0.098960168659687,0.0768163055181503
1761237273551137300,6.84313720703125,0.0645989999175071,0.128892570734024,0.2460259795188903
1761237273569173500,6.861173583984375,0.1130100712180137,0.0879645943641662,0.3756821155548095
1761237273587211300,6.879211181640625,0.1756237596273422,-0.0187841057777404,0.4303545653820038
1761237273605248300,6.897248291015625,0.193338856101036,-0.117286130785942,0.4170682430267334
1761237273623287000,6.915287109375,0.1650863289833068,-0.1583668142557144,0.3791945874691009
1761237273641324300,6.93332421875,0.1394299864768982,-0.2125810980796814,0.2788599729537964
1761237273659362000,6.951362060546875,0.0798706337809562,-0.1922698318958282,0.1837177276611328
1761237273677399600,6.969399658203125,0.0548251569271087,-0.1902845203876495,0.1889100819826126
1761237273695436300,6.987436279296875,0.0673478916287422,-0.2163990139961242,0.2965750694274902
1761237273713476900,7.005476806640625,0.0803287774324417,-0.2432770878076553,0.4350887835025787
1761237273731512800,7.023512939453125,0.036499198526144,-0.2703078687191009,0.5615378618240356
1761237273749550300,7.04155029296875,-0.0618501044809818,-0.2528982162475586,0.7199047207832336
1761237273767587800,7.059587890625,-0.1713477075099945,-0.2096794992685318,1.007316827774048
1761237273785626000,7.077626220703125,-0.2593123018741607,-0.1151480972766876,1.2415835857391355
1761237273803651600,7.095651611328125,-0.3006984293460846,0.0038179077673703,1.353830099105835
1761237273821701000,7.113701171875,-0.328340083360672,0.012980886735022,1.3843733072280884
1761237273839735300,7.1317353515625,-0.4108068645000458,-0.0592539273202419,1.6114624738693235
1761237273857776000,7.149776123046875,-0.6305656433105469,-0.1684460937976837,1.6708691120147705
1761237273875813000,7.167813232421875,-0.8426886200904846,-0.0004581489483825,1.5905404090881348
1761237273893851000,7.185850830078125,-0.9421069025993348,0.3300199508666992,1.2276864051818848
1761237273911885300,7.20388525390625,-0.921795666217804,0.8607091307640076,0.7197519540786743
1761237273929926100,7.221926025390625,-0.8112290501594543,1.4123204946517944,0.4915938079357147
1761237273947964000,7.2399638671875,-0.8097018599510193,1.7148514986038208,0.4132503271102905
1761237273966002000,7.258001953125,-0.8176431059837341,1.6505578756332395,0.4958698749542236
1761237273984039400,7.276039306640625,-0.8248208165168762,0.8952230215072632,0.8313875794410706
1761237274002072800,7.29407275390625,-0.6404922008514404,-0.0972802937030792,1.1684324741363523
1761237274020119000,7.312119140625,0.6362161636352539,-0.0704022198915481,2.225076675415039
1761237274038152400,7.33015234375,1.6614007949829102,0.3251330256462097,3.020576000213623
1761237274056190000,7.34818994140625,1.923920035362244,0.7345654368400574,3.368005514144897
1761237274074223900,7.366223876953125,1.5661057233810425,0.7938193678855896,3.025310039520264
1761237274092265700,7.384265625,0.9517280459403992,0.233197808265686,2.1056525707244877
1761237274110303500,7.402303466796875,0.1739438772201538,-0.7883216142654419,1.0395399332046509
1761237274128340700,7.4203408203125,-0.5233588218688965,-1.6175711154937744,0.1792889535427093
1761237274146379000,7.43837890625,-0.8484918475151062,-1.8507689237594604,-0.2409863322973251
1761237274164414500,7.45641455078125,-0.6221662759780884,-1.4275920391082764,-0.5587889552116394
1761237274182456300,7.474456298828125,-0.2357939779758453,-0.633009135723114,-0.6815729141235352
1761237274200491800,7.49249169921875,0.0398589558899402,-0.0358883328735828,-0.7890852093696594
1761237274218529000,7.510529052734375,0.133015900850296,0.2435825169086456,-0.8495608568191528
1761237274236572000,7.528572021484375,0.0444404482841491,0.2037235647439956,-0.8202393054962158
1761237274254604500,7.5466044921875,-0.1050688251852989,0.020616702735424,-0.7945829629898071
1761237274272642300,7.564642333984375,-0.2243402600288391,-0.1638645976781845,-0.8280278444290161
1761237274290680000,7.58268017578125,-0.257326990365982,-0.2947424948215484,-0.9011789560317992
1761237274308719000,7.600718994140625,-0.1287398487329483,-0.3310889601707458,-0.9456194043159484
1761237274326756600,7.618756591796875,0.0711658000946044,-0.3058907687664032,-0.8915578126907349
1761237274344794400,7.63679443359375,0.1705841124057769,-0.2965750694274902,-0.88361656665802
1761237274362830600,7.65483056640625,0.2089159190654754,-0.3483459055423736,-0.9184358716011048
1761237274380871400,7.672871337890625,0.2015855312347412,-0.3726277947425842,-0.9789115786552428
1761237274398907400,7.690907470703125,0.16920967400074,-0.4405865669250488,-1.1985175609588623
1761237274416945000,7.70894482421875,-0.0977384373545646,-0.5419901609420776,-1.4419474601745603
1761237274434964500,7.726964599609375,-0.4387539625167846,-0.5204572081565857,-1.325730323791504
1761237274453020400,7.7450205078125,0.0426078513264656,0.0221438650041818,-0.950506329536438
1761237274471047200,7.763047119140625,0.5447390675544739,0.3688098788261413,-1.8916969299316408
1761237274489096000,7.781095947265625,0.6586654782295227,0.4454734921455383,-2.97277569770813
1761237274507134000,7.799134033203125,0.485027015209198,0.6673702597618103,-2.4717135429382324
1761237274525170700,7.817170654296875,0.788016140460968,0.4721988439559936,-1.9016234874725344
1761237274543209200,7.835209228515625,0.9330966472625732,0.1820378452539444,-2.021047592163086
1761237274561245400,7.853245361328125,0.4592179358005523,-0.2310597747564315,-2.084730386734009
1761237274579286000,7.8712861328125,-0.159435823559761,-0.8159632682800293,-1.8038851022720337
1761237274597322000,7.889322021484375,-0.5174028873443604,-1.0726794004440308,-1.3516920804977417
1761237274615359700,7.90735986328125,-0.0606283769011497,-0.8663596510887146,-1.2663236856460571
1761237274633397200,7.925397216796875,0.6640105247497559,-0.2422080636024475,-1.3069461584091189
1761237274651434800,7.943434814453125,1.011745572090149,0.1269072592258453,-1.4492777585983276
1761237274669473000,7.96147314453125,0.9906707406044006,0.1556179225444793,-1.4425582885742188
1761237274687510300,7.97951025390625,0.8782715201377869,0.1383609771728515,-1.3808609247207642
1761237274705548000,7.997548095703125,0.7531968355178833,0.2217440903186798,-1.2709051370620728
1761237274723585500,8.01558544921875,0.5006040930747986,0.2293798923492431,-1.0126618146896362
1761237274741623300,8.033623291015624,0.1744020283222198,0.1898263692855835,-0.6855435371398926
1761237274759658000,8.051657958984375,0.0503963828086853,0.2793181240558624,-0.4621195495128631
1761237274777699000,8.069698974609375,0.0158824957907199,0.3145956099033355,-0.3689626157283783
1761237274795736000,8.087736083984375,-0.1374446749687194,0.2202169150114059,-0.3124575614929199
1761237274813774600,8.105774658203124,-0.3278819322586059,0.1420261710882187,-0.2335032373666763
1761237274831812400,8.123812255859375,-0.5291619896888733,0.0375682115554809,-0.1368338167667389
1761237274849849600,8.141849609375,-0.735634446144104,-0.047036625444889,-0.0897971913218498
1761237274867886000,8.159885986328124,-0.8643743395805359,-0.0723875313997268,-0.066737025976181
1761237274885926400,8.177926513671874,-0.849255383014679,-0.0769690200686454,0.0044287731871008
1761237274903962400,8.19596240234375,-0.7499898076057434,-0.0852157026529312,0.1244637966156005
1761237274922000100,8.214000244140625,-0.6139195561408997,-0.1142318025231361,0.2487748712301254
1761237274940038000,8.232037841796876,-0.4364632070064544,-0.1614211350679397,0.3332269787788391
1761237274958075600,8.25007568359375,-0.2396118938922882,-0.1621847152709961,0.3529273867607116
1761237274976113400,8.268113525390625,-0.119118720293045,-0.1056796908378601,0.327729195356369
1761237274994151400,8.2861513671875,-0.0221438650041818,0.0054977871477603,0.3034473061561584
1761237275012188700,8.304188720703126,0.0627664029598236,0.1230893433094024,0.2683225572109222
1761237275030226200,8.32222607421875,0.1049161031842231,0.1806633919477462,0.2128865420818328
1761237275048253200,8.340253173828126,0.0939205288887023,0.1728748679161071,0.1418734490871429
1761237275066302000,8.358302001953126,0.1160643994808197,0.1250746548175811,0.0933096632361412
1761237275084339500,8.37633935546875,0.1299615800380706,0.085062988102436,0.0549778714776039
1761237275102365200,8.394365234375,0.1259909570217132,0.1325577646493911,0.015118914656341
1761237275120415000,8.4124150390625,0.1036943718791008,0.1724167168140411,-0.020616702735424
1761237275138440700,8.430440673828125,0.1050688251852989,0.1942551434040069,-0.0161879286170005
1761237275156490500,8.448490478515625,0.0995710343122482,0.1857030391693115,0.0447458773851394
1761237275174527700,8.46652783203125,0.067195177078247,0.1266018152236938,0.1046106740832328
1761237275192565800,8.484565673828126,0.0383317954838275,0.0439822971820831,0.1117883399128913
1761237275210603300,8.502603271484375,-0.0010690141934901,0.0073303831741213,0.0623082555830478
1761237275228641500,8.5206416015625,-0.0346666015684604,0.0068722339347004,0.0145080499351024
1761237275246678800,8.5386787109375,-0.0482583530247211,-0.0096211275085806,0.0187841057777404
1761237275264716500,8.556716552734375,-0.0618501044809818,-0.0387899428606033,0.0314595587551593
1761237275282754000,8.574754150390625,-0.0980438739061355,-0.078343465924263,0.0363464802503585
1761237275300792000,8.5927919921875,-0.1319468915462494,-0.086895577609539,0.0545197241008281
1761237275318829600,8.61082958984375,-0.1291979998350143,-0.0659734457731247,0.0842994004487991
1761237275336867300,8.628867431640625,-0.0821613743901252,-0.0510072484612464,0.1282816976308822
1761237275354905000,8.646905029296875,-0.0297796800732612,-0.0453567430377006,0.1624901592731475
1761237275372942300,8.6649423828125,0.0138971842825412,-0.0661261603236198,0.2089159190654754
1761237275390979800,8.682979736328125,0.0491746515035629,-0.0537561401724815,0.2629774808883667
1761237275409017900,8.701017822265625,0.0548251569271087,-0.0302378293126821,0.304058164358139
1761237275427055600,8.7190556640625,0.0536034256219863,-0.0099265603348612,0.3103195428848266
1761237275445093600,8.73709375,0.0297796800732612,0.0442877300083637,0.256868839263916
1761237275463131100,8.755131103515625,0.0146607663482427,0.0775798857212066,0.2368630021810531
