time,seconds_elapsed,z,y,x
1761235829565950000,0.014949951171875,-0.532440185546875,-0.0998392105102539,0.0434222817420959
1761235829583981800,0.03298193359375,-0.1849541664123535,0.098154067993164,0.4027919769287109
1761235829602018600,0.0510185546875,0.0707941055297851,0.139495849609375,0.3699176907539367
1761235829620067600,0.069067626953125,-0.2398209571838379,0.1085596084594726,0.318444550037384
1761235829638106600,0.087106689453125,-0.6717371940612793,0.0762906074523925,0.2227607369422912
1761235829782418000,0.23141796875,-0.7910585403442383,0.1792097091674804,0.073819100856781
1761235829800457000,0.24945703125,-0.9428167343139648,0.3595232963562011,0.1013447642326355
1761235829818495700,0.267495849609375,-0.7428526878356934,0.4645986557006836,0.1675894260406494
1761235829836535000,0.28553515625,-0.6550445556640625,0.4736151695251465,0.0443795323371887
1761235829854562300,0.303562255859375,-0.6909327507019043,0.5381855964660645,-0.0340853333473205
1761235829872612900,0.32161279296875,-0.6108379364013672,0.5476980209350586,-0.0894221067428588
1761235829890651400,0.3396513671875,-0.2560639381408691,0.5886950492858887,-0.0748501420021057
1761235829908690700,0.357690673828125,0.0109157562255859,0.7734217643737793,-0.0280826091766357
1761235829926732300,0.375732177734375,0.0139331817626953,0.9375224113464355,0.0703223347663879
1761235829944767000,0.39376708984375,-0.0875778198242187,0.9983525276184082,0.1482570171356201
1761235829962809000,0.41180908203125,-0.1872711181640625,0.9580368995666504,0.1900919079780578
1761235829980846300,0.429846435546875,-0.0658063888549804,0.804725170135498,0.1156567931175232
1761235829998885000,0.447885009765625,-0.1804332733154297,0.6007480621337891,0.0561786293983459
1761235830016920300,0.46592041015625,-0.3778448104858398,0.5180282592773438,-0.0208830833435058
1761235830034963000,0.483962890625,-0.3609685897827148,0.476163387298584,0.0319135785102844
1761235830053002000,0.502001953125,-0.237980842590332,0.4021868705749511,0.0910600423812866
1761235830071029000,0.520029052734375,-0.5631389617919922,0.4564800262451172,0.1403586268424987
1761235830089079600,0.53807958984375,-0.8285694122314453,0.5396480560302734,0.190723180770874
1761235830107118600,0.55611865234375,-0.6260948181152344,0.5736713409423828,0.1903482675552368
1761235830125157400,0.574157470703125,-0.5433568954467773,0.622164249420166,0.235315203666687
1761235830143196400,0.592196533203125,-0.5567035675048828,0.646812915802002,0.2830129265785217
1761235830161235700,0.610235595703125,-0.5063447952270508,0.6648383140563965,0.386395514011383
1761235830179274500,0.6282744140625,-0.3501796722412109,0.7139453887939453,0.4297958016395569
1761235830197313300,0.646313232421875,-0.3860330581665039,0.6432957649230957,0.4635213613510132
1761235830215352000,0.66435205078125,-0.5522627830505371,0.5072493553161621,0.3935162425041199
1761235830233391000,0.68239111328125,-0.7236857414245605,0.2737164497375488,0.3809186220169067
1761235830251428900,0.700428955078125,-0.5586433410644531,-0.0018191337585449,0.2328484654426574
1761235830269469400,0.718469482421875,-0.2947330474853515,-0.0961785316467285,0.1323667764663696
1761235830287508200,0.73650830078125,0.1647720336914062,-0.0641283988952636,0.1425256729125976
1761235830305546500,0.75454638671875,0.6177234649658203,0.030487060546875,-0.0064316391944885
1761235830323585500,0.77258544921875,0.6559038162231445,0.5561432838439941,-0.3680737018585205
1761235830341624800,0.790624755859375,-0.4951119422912597,1.0936665534973145,-0.5193265676498413
1761235830359663600,0.80866357421875,-1.659224510192871,1.6394505500793457,-0.5599643588066101
1761235830377702700,0.82670263671875,-1.5627484321594238,1.9480900764465328,0.0144338607788085
1761235830395741400,0.844741455078125,0.1365365982055664,1.3010835647583008,0.7549993991851807
1761235830413780200,0.8627802734375,2.223780632019043,0.1603784561157226,0.7430511116981506
1761235830431819300,0.8808193359375,3.3108434677124023,-0.7630772590637207,0.1408100128173828
1761235830449858300,0.8988583984375,3.029446601867676,-1.272660732269287,-0.4881506562232971
1761235830467896300,0.916896240234375,1.2941656112670898,-1.3505325317382812,-0.7338653802871704
1761235830485935600,0.934935546875,-0.7016620635986328,-1.1826882362365725,-1.0976979732513428
1761235830503976200,0.95297607421875,-1.183943748474121,-1.0340304374694824,-1.5602413415908811
1761235830522001700,0.971001708984375,-0.3133373260498047,-1.1004762649536133,-1.6405020952224731
1761235830540053000,0.989052978515625,0.0325875282287597,-1.152936935424805,-1.12000834941864
1761235830558092000,1.007092041015625,-0.6216616630554199,-0.9138116836547852,-0.6328574419021606
1761235830576130600,1.025130615234375,-1.395258903503418,-0.7807035446166992,-0.3126782178878784
1761235830594169300,1.04316943359375,-1.0896930694580078,-0.791837215423584,-0.3400113582611084
1761235830641521200,1.090521240234375,0.7154378890991211,-1.9663760662078855,-1.2474786043167114
1761235830659559000,1.108558837890625,1.5663433074951172,-2.163616180419922,-1.274724006652832
1761235830677599500,1.126599609375,1.8575763702392576,-2.084317207336426,-0.9097304940223694
1761235830695637500,1.144637451171875,1.286113739013672,-1.6081852912902832,-0.4743527770042419
1761235830713676800,1.1626767578125,0.0990839004516601,-1.0326719284057615,-0.2556037306785583
1761235830731713800,1.1807138671875,-0.8392815589904785,-0.5630502700805664,-0.1330646872520446
1761235830749756000,1.198755859375,-1.1226983070373535,-0.3367853164672851,-0.1183169484138488
1761235830767793200,1.216793212890625,-1.1656379699707031,-0.2191591262817382,-0.31964111328125
1761235830785829000,1.2348291015625,-0.925875186920166,-0.1191263198852539,-0.5979257822036743
1761235830803873800,1.252873779296875,-0.7773594856262207,-0.000680923461914,-0.62848299741745
1761235830821910300,1.27091015625,-0.6743574142456055,0.3494000434875488,-0.4719316959381103
1761235830839953700,1.28895361328125,-0.8860063552856445,0.6091513633728027,-0.2221060991287231
1761235830857976600,1.3069765625,-0.6311187744140625,0.8294663429260254,-0.2177663445472717
1761235830876026400,1.3250263671875,0.049544334411621,0.8305411338806152,-0.1271574199199676
1761235830894066400,1.34306640625,0.4032306671142578,0.6807618141174316,-0.1249395012855529
1761235830912104400,1.3611044921875,0.5610628128051758,0.4780235290527344,-0.1935012340545654
1761235830930143500,1.3791435546875,0.5250177383422852,0.2255387306213379,-0.3158687949180603
1761235830948181800,1.397181640625,0.2467823028564453,0.1939311027526855,-0.5881755948066711
1761235830966218500,1.415218505859375,-0.4001235961914062,0.2320432662963867,-0.7107239961624146
1761235830984260000,1.433260009765625,-1.0116701126098633,0.3363461494445801,-0.8809897899627686
1761235831002299400,1.45129931640625,-1.3613367080688477,0.5359716415405273,-0.9876423478126526
1761235831020333800,1.469333740234375,-1.1875314712524414,0.742530345916748,-0.8850140571594238
1761235831038377500,1.48737744140625,-0.8333492279052734,0.9076566696166992,-0.6874889135360718
1761235831056415700,1.505415771484375,-0.6665520668029785,1.0077929496765137,-0.6528144478797913
1761235831074455000,1.523455078125,-0.0160074234008789,0.7042136192321777,-0.9079108238220216
1761235831092492800,1.541492919921875,1.398540496826172,0.171142578125,-1.202128291130066
1761235831110532900,1.559532958984375,2.703856468200684,-0.3214421272277832,-1.3788723945617676
1761235831128571000,1.57757080078125,3.2821102142333984,-0.2715902328491211,-1.9110658168792725
1761235831146610700,1.595610595703125,2.919300079345703,0.2471365928649902,-2.097742080688477
1761235831164646000,1.61364599609375,1.803389549255371,0.8459887504577637,-1.413664937019348
1761235831182691800,1.63169189453125,1.0652856826782229,1.278977394104004,-0.6181237697601318
1761235831200726500,1.6497265625,1.2671165466308594,1.2072720527648926,0.102809190750122
1761235831218766300,1.667766357421875,2.0600881576538086,0.6752281188964844,0.7220735549926758
1761235831236804400,1.685804443359375,2.635279655456543,-0.069582462310791,0.8844544887542725
1761235831254844700,1.7038447265625,2.4616594314575195,-0.7110652923583984,0.6649234890937805
1761235831272882200,1.721882080078125,1.5375356674194336,-1.066877841949463,0.4110410511493683
1761235831290921500,1.73992138671875,0.3014764785766601,-1.2525625228881836,0.1244672834873199
1761235831308959500,1.75795947265625,-0.6593055725097656,-1.2047255039215088,-0.104179635643959
1761235831326999800,1.775999755859375,-1.1436724662780762,-1.0641460418701172,-0.0754309967160224
1761235831345038300,1.794038330078125,-1.180186748504639,-0.8639125823974609,0.1024175286293029
1761235831363077400,1.812077392578125,-1.183333396911621,-0.6649050712585449,0.3639910221099853
1761235831381115600,1.83011572265625,-1.3142304420471191,-0.4770588874816894,0.5916439890861511
1761235831399155500,1.848155517578125,-1.871665477752685,-0.2415528297424316,0.8834320306777954
1761235831417193500,1.866193359375,-2.311142444610596,-0.00018310546875,1.1539981365203855
1761235831435233000,1.88423291015625,-1.949970245361328,-0.0212736129760742,1.2549307346343994
1761235831453271000,1.90227099609375,-0.7962183952331543,-0.4270634651184082,0.9855768084526062
1761235831471310800,1.920310791015625,0.2824783325195312,-1.0307855606079102,0.4342629313468933
1761235831489348900,1.938348876953125,0.5733232498168945,-1.4757871627807615,-0.1688821911811828
1761235831507388400,1.956388427734375,0.2551383972167969,-1.6444180011749268,-0.6408810615539551
1761235831525426700,1.9744267578125,-0.1314649581909179,-1.5260601043701172,-0.8410949110984802
1761235831543467000,1.992467041015625,-0.7777671813964844,-1.1864662170410156,-0.7245954275131226
1761235831561504800,2.0105048828125,-1.234860897064209,-0.7593374252319336,-0.4608731865882873
1761235831579544300,2.02854443359375,-1.2082104682922363,-0.3855681419372558,-0.198890209197998
1761235831597582300,2.046582275390625,-1.0285568237304688,-0.1401476860046386,-0.0583812147378921
1761235831615619300,2.064619384765625,-1.0583109855651855,0.0540580749511718,0.0271716341376304
1761235831633663200,2.082663330078125,-1.0840635299682615,0.2415432929992675,0.0101121217012405
1761235831651699000,2.100698974609375,-0.8910503387451172,0.3568072319030761,-0.0334357023239135
1761235831669738800,2.11873876953125,-0.543980598449707,0.3701467514038086,-0.0620075911283493
1761235831687766000,2.13676611328125,-0.1310224533081054,0.3627285957336426,-0.164233922958374
1761235831705816000,2.154816162109375,0.1329021453857422,0.3910279273986816,-0.1791456937789917
1761235831723855600,2.172855712890625,0.3219022750854492,0.4620413780212402,-0.179640457034111
1761235831741893600,2.1908935546875,0.4271469116210937,0.5310554504394531,-0.1924206018447876
1761235831759933400,2.208933349609375,0.4786872863769531,0.6268744468688965,-0.2446915060281753
1761235831777971500,2.226971435546875,0.3592367172241211,0.6555991172790527,-0.1944074928760528
1761235831796010800,2.2450107421875,0.3012981414794922,0.7234044075012207,-0.130613163113594
1761235831814049300,2.26304931640625,0.5355319976806641,0.7392401695251465,0.0113943517208099
1761235831832089300,2.28108935546875,1.0979795455932615,0.7134466171264648,0.1873106360435485
1761235831850126800,2.299126953125,1.865945816040039,0.6353106498718262,0.2862754762172699
1761235831868167000,2.3171669921875,2.400233268737793,0.5772562026977539,-0.0553316175937652
1761235831886201300,2.335201416015625,1.8695363998413088,0.7036166191101074,-0.6788612604141235
1761235831904244700,2.35324462890625,0.504608154296875,0.9918503761291504,-1.1898573637008667
1761235831922282500,2.371282470703125,-0.8174419403076172,1.3944993019104004,-1.0921173095703125
1761235831940322000,2.389322021484375,-1.4035415649414062,1.6990861892700195,-0.3732766509056091
1761235831958360000,2.407360107421875,-0.6816749572753906,1.5730066299438477,0.6026685237884521
1761235831976400100,2.425400146484375,1.4931373596191406,0.8665351867675781,1.0687706470489502
1761235832001742800,2.450742919921875,4.5030927658081055,-1.5614845752716064,-0.1879767775535583
1761235832019230700,2.468230712890625,3.3939008712768555,-2.0653653144836426,-0.9987425804138184
1761235832037281500,2.486281494140625,1.524126052856445,-2.362801074981689,-1.5747733116149902
1761235832055320600,2.504320556640625,0.2265882492065429,-2.105762004852295,-1.7869582176208496
1761235832073359400,2.522359375,-0.2584590911865234,-1.4303827285766602,-1.652557373046875
1761235832091398100,2.540398193359375,-0.4481153488159179,-0.7896728515625,-1.152788758277893
1761235832109436400,2.5584365234375,-0.795257568359375,-0.2992539405822754,-0.9016016721725464
1761235832127476200,2.576476318359375,-1.242316722869873,-0.0933108329772949,-0.9111328125
1761235832145515000,2.594514892578125,-1.5812983512878418,-0.099247932434082,-0.998083233833313
1761235832163553800,2.6125537109375,-1.6549005508422852,-0.2486796379089355,-1.0579965114593506
1761235832181592800,2.6305927734375,-1.435171127319336,-0.6151309013366699,-1.149293065071106
1761235832199631600,2.648631591796875,-0.8072948455810547,-1.173830509185791,-1.348224401473999
1761235832217670700,2.666670654296875,0.1367998123168945,-1.6923818588256836,-1.449148178100586
1761235832235709700,2.684709716796875,1.0312252044677734,-2.0315399169921875,-1.4895360469818115
1761235832253748200,2.702748291015625,1.2698736190795898,-2.185295343399048,-1.503031611442566
1761235832271787000,2.720787109375,0.8229503631591797,-2.1164021492004395,-1.426810383796692
1761235832289825800,2.73882568359375,-0.0860137939453125,-1.9027607440948489,-1.351865530014038
1761235832307865000,2.756864990234375,-0.9143009185791016,-1.6817946434020996,-1.30253005027771
1761235832325903400,2.7749033203125,-1.4568376541137695,-1.4737842082977295,-1.2520208358764648
1761235832343939300,2.792939208984375,-1.7151155471801758,-1.3102912902832031,-1.1747968196868896
1761235832361981700,2.810981689453125,-1.7422795295715332,-1.1794066429138184,-1.1081335544586182
1761235832380020500,2.8290205078125,-1.800673484802246,-1.0029854774475098,-0.998588800430298
1761235832398059500,2.8470595703125,-1.92524528503418,-0.6861147880554199,-0.7793508768081665
1761235832416096800,2.8650966796875,-1.7603497505187988,-0.245523452758789,-0.4332612454891205
1761235832434133800,2.8831337890625,-1.3959064483642578,0.1569800376892089,0.0497029572725296
1761235832452175000,2.901175048828125,-0.744356632232666,0.508732795715332,0.4803637266159057
1761235832470215700,2.919215576171875,0.1285161972045898,0.6967129707336426,0.6540922522544861
1761235832488253700,2.937253662109375,0.8118495941162109,0.7216448783874512,0.4817982017993927
1761235832506293200,2.955293212890625,0.9822978973388672,0.6970438957214355,0.1482439339160919
1761235832524319500,2.973319580078125,1.0918331146240234,0.6476292610168457,-0.0247256755828857
1761235832542370300,2.991370361328125,1.3560047149658203,0.5791764259338379,0.0259335488080978
1761235832560409300,3.009409423828125,1.7485828399658203,0.5330510139465332,0.0498398840427398
1761235832578448400,3.027448486328125,2.246811866760254,0.3749122619628906,-0.074632428586483
1761235832596487200,3.045487060546875,2.4384145736694336,0.3021435737609863,-0.8513426780700684
1761235832614526000,3.06352587890625,1.8036479949951167,0.4698605537414551,-1.707153081893921
1761235832632564700,3.081564697265625,0.9110994338989258,0.8130884170532227,-1.808216571807861
1761235832650603800,3.099603759765625,0.2288322448730468,1.3711843490600586,-1.2015540599822998
1761235832668642600,3.117642578125,0.071329116821289,1.6817498207092283,0.183958813548088
1761235832686681300,3.135681396484375,1.1843547821044922,1.5510859489440918,1.556605577468872
1761235832704720600,3.153720703125,3.133490562438965,0.6186318397521973,2.137183904647827
1761235832722759200,3.17175927734375,4.501455307006836,-0.5658440589904785,1.7929115295410156
1761235832740798200,3.189798095703125,3.7679033279418954,-1.6971595287322998,0.8199109435081482
1761235832758837200,3.207837158203125,1.5736980438232422,-2.415236711502075,-0.315254271030426
1761235832776875800,3.225875732421875,-0.3783645629882812,-2.595369815826416,-1.0210857391357422
1761235832794914800,3.243914794921875,-1.3535385131835938,-2.140353918075561,-1.2888811826705933
1761235832812954000,3.2619541015625,-1.7015838623046875,-1.5897789001464844,-0.8749774694442749
1761235832830976000,3.27997607421875,-1.9292559623718264,-1.006450653076172,-0.1607229709625244
1761235832849031400,3.298031494140625,-2.012942314147949,-0.5121641159057617,0.7866998910903931
1761235832867059500,3.3160595703125,-1.9152283668518064,-0.2301511764526367,1.549578309059143
1761235832885097500,3.334097412109375,-1.0003461837768557,-0.3497829437255859,1.6245110034942627
1761235832903150000,3.352150146484375,0.4281854629516601,-0.8988456726074219,1.013624668121338
1761235832921187300,3.370187255859375,1.4808053970336914,-1.5793938636779783,0.1022642850875854
1761235832939225900,3.388225830078125,1.3876018524169922,-2.1404576301574707,-0.9385639429092408
1761235832957264600,3.4062646484375,0.5641136169433594,-2.1520442962646484,-1.5611274242401123
1761235832975303400,3.424303466796875,-0.2407121658325195,-1.5818150043487549,-1.439110279083252
1761235832993342500,3.442342529296875,-0.7715797424316406,-0.8876428604125977,-1.0092153549194336
1761235833011381800,3.4603818359375,-1.0774335861206057,-0.4054551124572754,-0.4877733290195465
1761235833029420000,3.478419921875,-1.1780571937561035,-0.0779905319213867,-0.2465772926807403
1761235833047459300,3.496459228515625,-1.0933198928833008,0.0270233154296875,-0.1113518178462982
1761235833065498000,3.514498046875,-1.108851432800293,-0.0772418975830078,-0.0889838337898254
1761235833083537000,3.532536865234375,-0.8928623199462891,-0.2350683212280273,-0.2907785773277282
1761235833101576200,3.550576171875,-0.4978446960449219,-0.3701605796813965,-0.4052231609821319
1761235833119614000,3.568614013671875,-0.1436653137207031,-0.3903889656066894,-0.4271730780601501
1761235833137654500,3.586654541015625,0.0953922271728515,-0.3159794807434082,-0.4190603494644165
1761235833155692300,3.6046923828125,0.2105550765991211,-0.1906213760375976,-0.3132403194904327
1761235833173731000,3.62273095703125,-0.0103139877319335,0.0334806442260742,-0.1580718159675598
1761235833191769900,3.640769775390625,-0.2093362808227539,0.2850899696350097,0.0401725471019744
1761235833209809000,3.658808837890625,-0.2754278182983398,0.3892984390258789,0.2479982525110244
1761235833227848200,3.67684814453125,-0.2160167694091797,0.3928804397583008,0.3458909094333648
1761235833245886700,3.69488671875,-0.052581787109375,0.3604764938354492,0.4202422499656677
1761235833263922400,3.71292236328125,0.0284194946289062,0.3243064880371094,0.4901299774646759
1761235833281963300,3.73096337890625,-0.136570930480957,0.2797803878784179,0.4465393126010895
1761235833300005400,3.74900537109375,-0.3982644081115722,0.2709503173828125,0.3573766052722931
1761235833318042400,3.76704248046875,-0.5185079574584961,0.2909331321716308,0.3404116630554199
1761235833336069400,3.7850693359375,-0.5037975311279297,0.3246421813964844,0.418048620223999
1761235833354122500,3.80312255859375,-0.206552505493164,0.468970775604248,0.4426587224006653
1761235833372159000,3.821158935546875,0.1792278289794922,0.5351324081420898,0.4790578782558441
1761235833390186000,3.83918603515625,0.2957754135131836,0.5451841354370117,0.4760595858097076
1761235833408236500,3.857236572265625,0.2092819213867187,0.6487870216369629,0.4640317559242248
1761235833426275600,3.875275634765625,-0.0323781967163085,0.6684670448303223,0.3872859477996826
1761235833444314400,3.893314453125,-0.0587129592895507,0.6834306716918945,0.1679977774620056
1761235833462353200,3.911353271484375,0.1891098022460937,0.8061532974243164,-0.511995792388916
1761235833480392400,3.929392333984375,-0.1604690551757812,0.9750537872314452,-1.4409513473510742
1761235833498431200,3.94743115234375,-0.6615352630615234,1.1639328002929688,-1.705056071281433
1761235833516470000,3.965469970703125,-0.8476004600524902,1.5773367881774902,-1.382673740386963
1761235833534508800,3.9835087890625,-0.5826044082641602,1.9469451904296875,-0.4575594067573547
1761235833552547600,4.001547607421875,0.4157276153564453,1.8409485816955569,0.609765887260437
1761235833570586400,4.01958642578125,2.143524169921875,1.1480908393859863,0.8806141018867493
1761235833588625700,4.037625732421875,3.4587059020996094,-0.1137433052062988,0.4742052853107452
1761235833606664200,4.055664306640625,3.466245651245117,-1.181868553161621,-0.4342726469039917
1761235833624703000,4.073702880859375,2.0535478591918945,-1.7454938888549805,-1.331999897956848
1761235833642741800,4.09174169921875,0.6595029830932617,-1.690629959106445,-1.79606032371521
1761235833660780800,4.10978076171875,-0.1194076538085937,-1.155754566192627,-1.6857123374938965
1761235833678820000,4.127820068359375,-0.2815790176391601,-0.5519990921020508,-1.2291501760482788
1761235833696859400,4.145859375,-0.1199684143066406,-0.2514147758483886,-0.4707258343696594
1761235833714897400,4.1638974609375,0.0164356231689453,-0.2188730239868164,0.0334970951080322
1761235833732936700,4.181936767578125,0.2853546142578125,-0.3138656616210937,0.2543290555477142
1761235833750964500,4.199964599609375,0.5233497619628906,-0.4923863410949707,0.3855944275856018
1761235833769014000,4.218013916015625,0.245004653930664,-0.7156920433044434,0.389799952507019
1761235833787052500,4.236052490234375,-0.3089179992675781,-1.100149631500244,0.1941484212875366
1761235833805092600,4.254092529296875,-0.511115550994873,-1.4677362442016602,-0.0781995058059692
1761235833823130600,4.272130615234375,-0.2809886932373047,-1.513996124267578,-0.2288594245910644
1761235833841169700,4.290169677734375,-0.1447715759277343,-1.4318406581878662,-0.1647922992706298
1761235833859208400,4.30820849609375,-0.3839359283447265,-1.13637113571167,-0.1064414381980896
1761235833877247700,4.326247802734375,-1.0875024795532229,-0.9168672561645508,-0.1172440648078918
1761235833895286500,4.34428662109375,-1.6363768577575684,-0.6835145950317383,-0.3030778169631958
1761235833913325000,4.362324951171875,-1.8064308166503904,-0.561058521270752,-0.3355313539505005
1761235833931363800,4.38036376953125,-1.8096427917480469,-0.365821361541748,-0.2791002988815307
1761235833949402000,4.398402099609375,-1.2545828819274902,-0.1345243453979492,-0.0750899314880371
1761235833967442000,4.41644189453125,-0.3718223571777344,-0.1297149658203125,0.2192437052726745
1761235833985480700,4.434480712890625,0.1280670166015625,-0.1351456642150879,0.2778395414352417
1761235834003519500,4.45251953125,-0.0982542037963867,-0.0196232795715332,0.2512916326522827
1761235834021558300,4.470558349609375,-0.461430549621582,-0.0010905265808105,0.3242425322532654
1761235834039597600,4.48859765625,-0.8222169876098633,0.0041766166687011,0.2043391466140747
1761235834057635800,4.5066357421875,-0.9273386001586914,0.0081558227539062,0.108582854270935
1761235834075675100,4.524675048828125,-0.7014923095703125,0.0609173774719238,0.0212346315383911
1761235834093714200,4.542714111328125,-0.3272609710693359,0.0200157165527343,0.0521555542945861
1761235834111752700,4.560752685546875,0.3215885162353515,-0.0146970748901367,-0.002752661705017
1761235834129791500,4.57879150390625,0.760310173034668,0.021252155303955,-0.1005678176879882
1761235834147830500,4.59683056640625,0.8402585983276367,0.0983781814575195,-0.1192353963851928
1761235834165869300,4.614869384765625,0.6455621719360352,0.2815003395080566,-0.2175292372703552
1761235834183904800,4.63290478515625,0.5723657608032227,0.899986743927002,-0.9825995564460754
1761235834201947100,4.650947021484375,0.241642951965332,1.4841313362121582,-1.274622678756714
1761235834219986000,4.66898583984375,-0.1027278900146484,1.564755916595459,-0.6672301292419434
1761235834238025000,4.68702490234375,0.1634359359741211,1.2741384506225586,0.228033572435379
1761235834256063500,4.7050634765625,1.4148740768432615,0.3729286193847656,0.8559921383857727
1761235834274102300,4.723102294921875,2.996723175048828,-0.3645162582397461,0.8038466572761536
1761235834292141600,4.7411416015625,3.897930145263672,-0.9069952964782716,0.7139997482299805
1761235834310180000,4.75918017578125,3.295615196228028,-1.3052170276641846,0.5019158124923706
1761235834328219000,4.777218994140625,1.8997774124145508,-1.5631978511810305,-0.012271225452423
1761235834346256600,4.795256591796875,0.4704790115356445,-1.7588844299316406,-0.5020493268966675
1761235834364298000,4.813298095703125,-0.6213369369506836,-1.7206087112426758,-0.9364590644836426
1761235834382336000,4.8313359375,-0.9188718795776368,-1.4596493244171145,-1.0492039918899536
1761235834400374500,4.84937451171875,-0.7932829856872559,-1.296227216720581,-0.4119595289230346
1761235834418413600,4.86741357421875,-0.8619275093078613,-1.1601967811584473,0.1390445232391357
1761235834436452400,4.885452392578125,-0.7593607902526855,-1.0932469367980957,0.6147143840789795
1761235834454490400,4.903490478515625,-0.4040603637695312,-1.058805227279663,0.8941097259521484
1761235834472530700,4.92153076171875,0.1079959869384765,-1.0500264167785645,0.6718738675117493
1761235834490568400,4.939568359375,0.3527545928955078,-1.1815271377563477,-0.0916944742202758
1761235834508607500,4.957607421875,0.0985546112060546,-1.3824501037597656,-0.7327153086662292
1761235834526635000,4.975635009765625,-0.2164478302001953,-1.4030382633209229,-1.1040852069854736
1761235834544684300,4.993684326171875,-0.3938255310058594,-1.0732929706573486,-0.9670612215995787
1761235834562726000,5.011725830078125,-0.5968232154846191,-0.531184196472168,-0.5702728629112244
1761235834580763400,5.029763427734375,-0.8266839981079102,-0.083841323852539,-0.2646448612213135
1761235834598802200,5.04780224609375,-1.0132198333740234,0.1618256568908691,-0.0221906900405883
1761235834616839200,5.065839111328125,-0.9926204681396484,0.2400684356689453,0.0998117923736572
1761235834634881800,5.0838818359375,-0.9218788146972656,0.2020444869995117,0.1675899028778076
1761235834652918800,5.101918701171875,-0.917365550994873,0.1546835899353027,0.2224471569061279
1761235834670949600,5.11994970703125,-0.911562442779541,0.0119094848632812,0.1013385653495788
1761235834688984300,5.137984375,-1.0638790130615234,-0.1329293251037597,0.090619683265686
1761235834707035400,5.156035400390625,-1.1114397048950195,-0.2061977386474609,0.0959930419921875
1761235834725062100,5.174062255859375,-0.7618756294250488,-0.2754030227661133,0.0880220532417297
1761235834743113000,5.192113037109375,-0.3230438232421875,-0.2330160140991211,0.1551582813262939
1761235834761151700,5.21015185546875,-0.1118707656860351,-0.0842189788818359,0.2012291550636291
1761235834779190300,5.228190185546875,-0.0110111236572265,0.0688858032226562,0.2876008152961731
1761235834797229800,5.246229736328125,-0.1994209289550781,0.2261691093444824,0.3702550828456878
1761235834815268400,5.264268310546875,-0.3245992660522461,0.4461627006530761,0.4073140919208526
1761235834833307400,5.282307373046875,-0.1429634094238281,0.5994071960449219,0.4430910944938659
1761235834851346200,5.30034619140625,0.1807241439819336,0.6846718788146973,0.3257231712341308
1761235834869384700,5.318384765625,0.2066154479980468,0.6431221961975098,0.123237669467926
1761235834887424000,5.336424072265625,0.2231016159057617,0.4449377059936523,0.0079253315925598
1761235834905462800,5.354462890625,0.3459911346435547,0.2056331634521484,-0.0147436261177062
1761235834923501600,5.37250146484375,0.6771926879882812,0.1299214363098144,-0.1832886934280395
1761235834941540400,5.390540283203125,1.2063589096069336,0.3038406372070312,-0.5499504208564758
1761235834959579000,5.408578857421875,0.8812665939331055,0.7860760688781738,-1.0741825103759766
1761235834977618000,5.426617919921875,0.0290441513061523,0.9832053184509276,-1.1765098571777344
1761235834995656700,5.44465673828125,-0.4221076965332031,1.0596585273742676,-0.5941112041473389
1761235835013695700,5.46269580078125,0.5778064727783203,0.8689589500427246,0.2832758724689483
1761235835031734500,5.480734619140625,2.21585464477539,0.1415948867797851,0.749672532081604
1761235835049772800,5.498772705078125,3.34748649597168,-0.5914835929870605,0.4231462776660919
1761235835067812900,5.516812744140625,3.0859203338623047,-1.264919996261597,-0.2590983808040619
1761235835085850000,5.53485009765625,1.3958349227905271,-1.4949934482574463,-1.0032122135162354
1761235835103888400,5.552888427734375,-0.5729703903198242,-1.3201875686645508,-1.440222978591919
1761235835121927200,5.57092724609375,-1.7977375984191897,-1.0054473876953125,-1.8084617853164675
1761235835139969300,5.58896923828125,-1.864863395690918,-0.8032746315002441,-1.6344220638275146
1761235835158006300,5.60700634765625,-1.5058097839355469,-1.0363540649414062,-1.0856044292449951
1761235835176040200,5.625040283203125,-1.0509138107299805,-1.4577937126159668,-0.6335484981536865
1761235835194072000,5.643072021484375,0.1242141723632812,-1.6456074714660645,-0.3144711256027221
1761235835212123100,5.661123046875,1.6867008209228516,-1.8509197235107424,-0.0300734341144561
1761235835230162000,5.679161865234375,2.403318405151367,-2.0753884315490723,-0.2202413082122802
1761235835248200400,5.697200439453125,2.1886110305786133,-2.31408166885376,-0.842133641242981
1761235835266238200,5.71523828125,1.069427490234375,-2.4204261302948,-1.2068960666656494
1761235835284280800,5.73328076171875,0.1133232116699218,-2.1214582920074463,-1.3352272510528564
1761235835302316800,5.75131689453125,-0.5174655914306641,-1.6547784805297852,-0.8672601580619812
1761235835320356400,5.7693564453125,-0.6718673706054688,-1.0516853332519531,-0.278044581413269
1761235835338395100,5.78739501953125,-0.7588071823120117,-0.5458536148071289,0.2942273020744324
1761235835356422000,5.805421875,-0.8802371025085449,-0.1232829093933105,0.5830093026161194
1761235835374473000,5.823472900390625,-0.9849824905395508,0.1715006828308105,0.619178056716919
1761235835392511500,5.841511474609375,-1.082383155822754,0.3514528274536133,0.5246017575263977
1761235835410550500,5.859550537109375,-1.4644737243652344,0.4854860305786133,0.4537465870380401
1761235835428589600,5.877589599609375,-1.607046127319336,0.7362642288208008,0.3360199928283691
1761235835446628000,5.895628173828125,-1.388801097869873,0.8167581558227539,0.1802113056182861
1761235835464667000,5.9136669921875,-0.9877438545227052,0.6676254272460938,0.0384579598903656
1761235835482706200,5.9317060546875,-0.8212080001831055,0.6696763038635254,0.0760230720043182
1761235835500744700,5.94974462890625,-0.8623805046081543,0.8735866546630859,0.1860869824886322
1761235835518783700,5.96778369140625,-0.7679967880249023,1.033165454864502,0.2258836328983307
1761235835536822300,5.985822265625,-0.2779531478881836,1.2150464057922363,0.2367241233587265
1761235835554861300,6.003861328125,0.1420555114746093,1.3134584426879885,0.3173242509365082
1761235835572900400,6.021900390625,0.6519708633422852,1.3020148277282717,0.3107911348342895
1761235835590943200,6.039943115234375,1.4420785903930664,1.116248607635498,0.2679180800914764
1761235835608977700,6.057977783203125,2.224710464477539,0.8812828063964844,0.2270102202892303
1761235835627016400,6.076016357421875,2.3674144744873047,0.6781387329101562,0.2363359034061432
1761235835645055200,6.09405517578125,1.9136972427368164,0.6329941749572754,0.1145545840263366
1761235835663094500,6.112094482421875,1.783050537109375,1.012223720550537,-0.8049443960189819
1761235835681133300,6.13013330078125,1.5679912567138672,1.297776699066162,-1.5366979837417605
1761235835699172400,6.14817236328125,1.2746047973632812,1.4552998542785645,-1.4195387363433838
1761235835717211100,6.166211181640625,1.1498088836669922,1.4573945999145508,-0.4559270143508911
1761235835735250000,6.18425,1.5813121795654297,1.059706211090088,0.6522205471992493
1761235835753288200,6.2022880859375,2.000516891479492,0.0498013496398925,1.2541406154632568
1761235835771327700,6.22032763671875,2.081216812133789,-1.0434746742248535,1.2499065399169922
1761235835789366000,6.238365966796875,1.8578214645385744,-1.888977289199829,0.7517386674880981
1761235835807405300,6.2564052734375,1.307699203491211,-2.430438756942749,0.0772586464881897
1761235835825443800,6.27444384765625,0.2562093734741211,-2.860278844833374,-0.4245234727859497
1761235835843483000,6.29248291015625,-0.8858757019042969,-2.8477017879486084,-1.0202308893203735
1761235835861521700,6.310521728515625,-1.761247158050537,-2.4181900024414062,-1.078678011894226
1761235835879560400,6.328560546875,-1.974686622619629,-1.8305344581604004,-0.7693241834640503
1761235835897600000,6.34660009765625,-2.2659411430358887,-1.3129658699035645,-0.3539988994598388
1761235835915638300,6.36463818359375,-2.5407443046569824,-0.778376579284668,0.1616015434265136
1761235835933677000,6.382677001953125,-2.635789394378662,-0.4432821273803711,0.8994523882865906
1761235835951715800,6.4007158203125,-2.049079418182373,-0.1798858642578125,1.2656900882720947
1761235835969754600,6.418754638671875,-0.6632537841796875,-0.1481928825378418,1.2919551134109497
1761235835987793700,6.436793701171875,0.6933226585388184,-0.4385828971862793,0.8319142460823059
1761235836005833000,6.4548330078125,1.0578789710998535,-0.749544620513916,-0.1450862288475036
1761235836023860000,6.47285986328125,0.5353412628173828,-0.9048295021057128,-1.0693256855010986
1761235836041910300,6.49091015625,-0.1861124038696289,-0.7546124458312988,-1.485006332397461
1761235836059949000,6.508948974609375,-0.5338039398193359,-0.2442202568054199,-1.5146360397338867
1761235836077988000,6.526988037109375,-0.5872068405151367,0.2081594467163086,-0.9988765716552734
1761235836096014000,6.54501416015625,-0.5388269424438477,0.5783400535583496,-0.3773354291915893
1761235836114054700,6.5630546875,-0.6263065338134766,0.7864241600036621,0.1580708026885986
1761235836132093000,6.581093017578125,-0.6451759338378906,0.6944370269775391,0.3622405529022217
1761235836150144500,6.59914453125,-0.4298324584960937,0.2040872573852539,0.2423124313354492
1761235836168181800,6.617181640625,-0.2619552612304687,-0.2411479949951172,-0.007030963897705
1761235836186219300,6.63521923828125,-0.1753196716308593,-0.469855785369873,-0.1345452070236206
1761235836204256500,6.653256591796875,-0.0603828430175781,-0.5230822563171387,-0.16480553150177
1761235836222298600,6.671298583984375,0.0131483078002929,-0.4459834098815918,0.0451304912567138
1761235836240337400,6.68933740234375,-0.013472557067871,-0.2634091377258301,0.179401159286499
1761235836258376400,6.70737646484375,-0.2070512771606445,-0.0497136116027832,0.2730389833450317
1761235836276415000,6.7254150390625,-0.3317184448242187,0.2115349769592285,0.3265354633331299
1761235836294453800,6.743453857421875,-0.4278345108032226,0.3510966300964355,0.3115366697311401
1761235836312492500,6.761492431640625,-0.3155183792114258,0.5122156143188477,0.3406852483749389
1761235836330531300,6.77953125,-0.0212869644165039,0.6244425773620605,0.4709645509719848
1761235836348571000,6.79757080078125,0.1501607894897461,0.6822795867919922,0.4956693649291992
1761235836366609700,6.815609619140625,0.3931217193603515,0.6886229515075684,0.3453660011291504
1761235836384648400,6.8336484375,0.6712894439697266,0.5865178108215332,0.122246503829956
1761235836402687200,6.851687255859375,0.8104496002197266,0.4715833663940429,-0.0628674030303955
1761235836420724200,6.86972412109375,0.9380626678466796,0.5648679733276367,-0.5095094442367554
1761235836438766300,6.887766357421875,0.680823802947998,0.9986443519592284,-1.2975445985794067
1761235836456803600,6.905803466796875,-0.1311759948730468,1.4288506507873535,-1.365004539489746
1761235836474842000,6.923842041015625,-0.8331494331359863,1.7416324615478516,-0.6964411735534668
1761235836492881200,6.941881103515625,-0.3755702972412109,1.8099427223205569,0.3727192282676697
1761235836510912500,6.95991259765625,1.205552101135254,1.048159122467041,1.1100213527679443
1761235836528960000,6.9779599609375,2.5389323234558105,-0.0855579376220703,0.8985810875892639
1761235836546998000,6.995998046875,2.3826417922973637,-1.004368782043457,0.2780711054801941
1761235836565036800,7.014036865234375,1.1264338493347168,-1.343574047088623,-0.4833781719207763
1761235836583075600,7.03207568359375,0.3418135643005371,-1.4848408699035645,-1.2365330457687378
1761235836601114400,7.0501142578125,0.063758373260498,-1.4257192611694336,-1.8059401512146
1761235836619151600,7.068151611328125,-0.3129487037658691,-1.202157974243164,-1.851470232009888
1761235836666503700,7.115503662109375,-1.6011805534362793,-0.4541521072387695,-0.5925931930541992
1761235836684543000,7.13354296875,-0.5930075645446777,-0.5694136619567871,-0.0540070533752441
1761235836702581500,7.15158154296875,0.9059667587280272,-0.7889614105224609,0.4417768120765686
1761235836720620800,7.169620849609375,2.0402565002441406,-0.9607253074645996,0.601302444934845
1761235836738659600,7.18765966796875,2.206329345703125,-1.1299209594726562,0.3195793032646179
1761235836756696600,7.205696533203125,1.5992450714111328,-1.3654327392578125,-0.2356590032577514
1761235836774738400,7.223738525390625,0.7677679061889648,-1.5454254150390625,-0.7681463956832886
1761235836792776000,7.24177587890625,0.1462612152099609,-1.525074481964111,-0.8993103504180908
1761235836810814700,7.259814697265625,-0.1717677116394043,-1.2644591331481934,-0.6903610229492188
1761235836828853500,7.277853515625,-0.4440493583679199,-0.8677639961242676,-0.3119102716445923
1761235836846883000,7.295883056640625,-0.6379795074462891,-0.5422511100769043,0.1208260059356689
1761235836864931800,7.313931884765625,-0.8873491287231445,-0.324709415435791,0.4006186127662658
1761235836882970000,7.33197021484375,-1.2000513076782229,-0.229705810546875,0.2141286730766296
1761235836901009200,7.350009033203125,-1.4329628944396973,-0.1882119178771972,-0.1467657089233398
1761235836919047700,7.368047607421875,-1.602069854736328,-0.1160812377929687,-0.2609284520149231
1761235836937086500,7.38608642578125,-1.527233600616455,0.0733880996704101,-0.2414613366127014
1761235836955124500,7.40412451171875,-1.1650934219360352,0.1242132186889648,-0.1782590746879577
1761235836973165000,7.4221650390625,-0.8624505996704102,0.0161738395690917,-0.1003822684288024
1761235836991202800,7.440202880859375,-0.828948974609375,0.0588469505310058,-0.0320033431053161
1761235837009241000,7.458240966796875,-0.6105961799621582,0.1550970077514648,0.1385086178779602
1761235837027269600,7.47626953125,-0.2771821022033691,0.1975502967834472,0.1647263765335083
1761235837045320000,7.49431982421875,-0.1619834899902343,0.249272346496582,0.0241232514381408
1761235837063358200,7.512358154296875,-0.0535764694213867,0.2975196838378906,0.0056423544883728
1761235837081397200,7.530397216796875,0.0231342315673828,0.2685518264770508,-0.1108540296554565
1761235837099435800,7.548435791015625,0.3565778732299804,0.3230586051940918,-0.4415275454521179
1761235837117475000,7.56647509765625,0.6685209274291992,0.3634800910949707,-0.4753576517105102
1761235837135513300,7.584513427734375,1.2204885482788086,0.4158058166503906,-0.59563148021698
1761235837153552600,7.602552734375,1.875093460083008,0.6470222473144531,-1.0927059650421145
1761235837171590400,7.62059033203125,1.745265007019043,1.144913673400879,-1.2812914848327637
1761235837189631200,7.63863134765625,0.9272785186767578,1.1231002807617188,-0.6272412538528442
1761235837207669000,7.6566689453125,0.313633918762207,1.1544537544250488,0.0976261496543884
1761235837225708000,7.6747080078125,0.5056476593017578,1.0344195365905762,1.024469017982483
1761235837243746800,7.692746826171875,1.3205070495605469,0.4404582977294922,1.4182162284851074
1761235837261786000,7.7107861328125,2.128664970397949,-0.5256810188293457,1.079540491104126
1761235837279824000,7.728823974609375,2.0718135833740234,-1.4555110931396484,0.404040515422821
1761235837297863200,7.74686328125,1.2082929611206057,-2.0199098587036133,-0.3188492059707641
1761235837315902000,7.76490185546875,0.230443000793457,-2.161332368850708,-0.8195441961288452
1761235837333941000,7.78294091796875,-0.363016128540039,-2.073899269104004,-1.1594346761703491
1761235837351978500,7.800978515625,-0.7562923431396484,-1.7866158485412598,-1.111451268196106
1761235837370019600,7.81901953125,-1.0250110626220703,-1.4811639785766602,-0.5779812335968018
1761235837388057600,7.8370576171875,-1.3180193901062012,-1.1419095993041992,0.263824462890625
1761235837406093000,7.855093017578125,-1.0686321258544922,-0.7439403533935547,1.0164021253585815
1761235837424131800,7.8731318359375,-0.1470723152160644,-0.5309247970581055,1.281999111175537
1761235837442177300,7.89117724609375,0.4545793533325195,-0.4713563919067383,0.9316731095314026
1761235837460213000,7.909212890625,0.2801656723022461,-0.5735673904418945,0.2278710007667541
1761235837478251500,7.92725146484375,-0.1350059509277343,-0.7118816375732422,-0.558569073677063
1761235837496290000,7.9452900390625,-0.3504018783569336,-0.6862397193908691,-1.1098747253417969
1761235837514323700,7.96332373046875,-0.3811883926391601,-0.568845272064209,-1.145854353904724
1761235837532368000,7.981367919921875,-0.3168716430664062,-0.1639661788940429,-0.7824198007583618
1761235837550407200,7.9994072265625,-0.1916990280151367,0.1641721725463867,-0.1503551006317138
1761235837568445700,8.01744580078125,-0.3525676727294922,0.3514008522033691,0.321187674999237
1761235837586484700,8.035484619140625,-0.6428823471069336,0.3160686492919922,0.5193008780479431
1761235837604524500,8.053524658203125,-0.6879005432128906,0.1822729110717773,0.4639981389045715
1761235837622558500,8.071558349609376,-0.6208209991455078,0.0068821907043457,0.3111979961395263
1761235837640603600,8.089603759765625,-0.5798954963684082,-0.1376557350158691,0.1076210737228393
1761235837658640000,8.107639892578124,-0.7035245895385742,-0.2271652221679687,-0.0907295942306518
1761235837676667600,8.125667724609375,-0.8463230133056641,-0.2207040786743164,-0.1627811193466186
1761235837694720300,8.14372021484375,-0.8828949928283691,-0.1883993148803711,-0.1479915380477905
1761235837712756200,8.161756103515625,-0.5729846954345703,-0.1366057395935058,-0.2274738550186157
1761235837730795000,8.179794921875,-0.2362270355224609,0.0451593399047851,-0.1331279277801513
1761235837748834000,8.197833984375,0.0418214797973632,0.2779498100280761,-0.0581610202789306
1761235837766873300,8.215873291015624,-0.2897586822509765,0.5615715980529785,0.2154511213302612
1761235837784911400,8.233911376953126,-0.212188720703125,0.7184410095214844,0.310025691986084
1761235837802950400,8.251950439453125,-0.0164136886596679,0.5484170913696289,0.2482551336288452
1761235837820989400,8.269989501953125,-0.4170789718627929,0.4309291839599609,0.4867932796478271
1761235837839028500,8.288028564453125,-0.6512594223022461,0.8890643119812012,-0.2238476276397705
1761235837857066800,8.306066650390624,0.5768709182739258,0.3968319892883301,0.2505614757537842
1761235837875105800,8.324105712890624,1.5986919403076172,0.0987253189086914,0.2703133821487427
1761235842765861000,0.116861083984375,-0.3675932884216308,-0.0932083129882812,-0.0611584186553955
1761235842783904800,0.13490478515625,-0.9973626136779784,-0.0401687622070312,-0.0469094514846801
1761235842801955300,0.152955322265625,-1.2298460006713867,-0.1459331512451172,0.0401909351348876
1761235842819982300,0.170982421875,-0.6880130767822266,-0.3292603492736816,0.2281093597412109
1761235842838033200,0.189033203125,0.1485610008239746,-0.4771723747253418,0.3434853553771972
1761235842856076000,0.207075927734375,0.7101588249206543,-0.5998849868774414,0.2341488599777221
1761235842874110500,0.2251103515625,0.6570405960083008,-0.5397167205810547,0.2064096927642822
1761235842892149000,0.24314892578125,0.3884153366088867,-0.4515142440795898,0.3261171579360962
1761235842910188300,0.261188232421875,-0.0202226638793945,-0.2646646499633789,0.4107524156570434
1761235842928227000,0.27922705078125,-0.2698197364807129,-0.0492405891418457,0.3869246244430542
1761235842946266000,0.29726611328125,-0.6879048347473145,0.1871461868286132,0.2931444644927978
1761235842964304600,0.3153046875,-1.1920037269592283,0.4048619270324707,0.2908861637115478
1761235842982343200,0.33334326171875,-1.4488472938537598,0.5693035125732422,0.4143162965774536
1761235843000382200,0.35138232421875,-1.2854480743408203,0.6386828422546387,0.6216485500335693
1761235843018420700,0.369420654296875,-0.6841263771057129,0.5617547035217285,0.5931634902954102
1761235843036459500,0.38745947265625,0.1003503799438476,0.4340443611145019,0.2193671464920044
1761235843054498000,0.405498046875,0.2246069908142089,0.4284677505493164,-0.0039174556732177
1761235843072536800,0.423536865234375,-0.0702886581420898,0.6797289848327637,0.1506760120391845
1761235843090575600,0.44157568359375,-0.1780157089233398,0.8189396858215332,0.4826289415359497
1761235843108610800,0.45961083984375,0.0306625366210937,0.8427295684814453,0.5727605819702148
1761235843126657300,0.4776572265625,0.3023328781127929,0.8809423446655273,0.5481581091880798
1761235843144692500,0.4956923828125,0.3341493606567383,0.8959307670593262,0.6112900376319885
1761235843162731300,0.513731201171875,-0.0275325775146484,0.7965850830078125,0.4680204391479492
1761235843180769800,0.531769775390625,-0.6616783142089844,0.6968541145324707,0.082654595375061
1761235843198808600,0.54980859375,-1.2954578399658203,0.6575126647949219,-0.0705388784408569
1761235843216847400,0.567847412109375,-1.5437240600585938,0.6241135597229004,0.0080734491348266
1761235843234886000,0.585885986328125,-1.2635068893432615,0.6293783187866211,0.0814107656478881
1761235843252924700,0.603924560546875,-0.858057975769043,0.5464901924133301,0.1406404972076416
1761235843270963500,0.62196337890625,-0.6714963912963867,0.380950927734375,0.2325489521026611
1761235843288990500,0.639990478515625,-0.5432658195495605,0.3068828582763672,0.2564609050750732
1761235843307041300,0.658041259765625,-0.5096588134765625,0.3245830535888672,0.4417480230331421
1761235843325080000,0.676080078125,-0.5387654304504395,0.4126234054565429,0.5584407448768616
1761235843367920000,0.718920166015625,-0.2413029670715332,0.6773099899291992,0.9218430519104004
1761235843385960700,0.736960693359375,-0.1593637466430664,0.7813067436218262,0.9554452896118164
1761235843403998200,0.754998291015625,-0.1273136138916015,0.8372092247009277,0.943611741065979
1761235843422029800,0.77302978515625,-0.0327205657958984,0.8324933052062988,0.8950666785240173
1761235843440076300,0.791076171875,0.0861454010009765,0.8401403427124023,0.834363579750061
1761235843458116000,0.8091162109375,0.207859992980957,0.9107456207275392,0.6937700510025024
1761235843476150000,0.82714990234375,0.3849916458129883,0.8905425071716309,0.5969955325126648
1761235843494193700,0.845193603515625,0.6294431686401367,0.8029880523681641,0.4966199994087219
1761235843512228900,0.863228759765625,1.087510108947754,0.7304306030273438,0.4103765487670898
1761235843530273500,0.8812734375,1.957655906677246,0.7601742744445801,0.2242683172225952
1761235843548308700,0.899308837890625,2.344423294067383,0.7648077011108398,0.2186191082000732
1761235843566343400,0.917343505859375,1.3467206954956057,0.7691659927368164,0.0791302919387817
1761235843584386000,0.935385986328125,0.0241551399230957,0.8351707458496094,-0.1225987672805786
1761235843602426000,0.953426025390625,-0.7350130081176758,0.8044819831848145,0.0467878580093383
1761235843620463600,0.971463623046875,-0.6089725494384766,0.6229581832885742,0.4365664720535278
1761235843638504000,0.98950390625,0.3260774612426758,0.1297740936279297,0.8562441468238831
1761235843656541400,1.00754150390625,1.424358367919922,-0.7463116645812988,0.8511570692062378
1761235843674581000,1.0255810546875,2.1758203506469727,-1.5167112350463867,0.3658831119537353
1761235843692618800,1.04361865234375,2.090537071228028,-2.088042736053467,-0.2106779813766479
1761235843710658800,1.061658935546875,1.0844459533691406,-2.284432888031006,-0.6704604625701904
1761235843728696600,1.079696533203125,-0.0593175888061523,-2.110774517059326,-0.8864603042602539
1761235843746736400,1.097736328125,-0.7690424919128418,-1.5920753479003906,-1.0496383905410769
1761235843764774100,1.115774169921875,-1.0864500999450684,-1.0703425407409668,-1.0743408203125
1761235843782813700,1.133813720703125,-1.1160097122192385,-0.6775150299072266,-1.034510850906372
1761235843800851700,1.151851806640625,-0.995553493499756,-0.4226455688476562,-1.0254089832305908
1761235843818891500,1.1698916015625,-0.7878518104553223,-0.3001365661621094,-0.8734409809112549
1761235843836928800,1.1879287109375,-0.6035223007202148,-0.4964876174926758,-0.6055537462234497
1761235843854968600,1.205968505859375,-0.2308535575866699,-0.7662968635559082,-0.6225627660751343
1761235843872996600,1.22399658203125,0.3234014511108398,-1.082409381866455,-0.7988215684890747
1761235843891046400,1.24204638671875,0.5695562362670898,-1.3302879333496094,-0.8111789226531982
1761235843909084200,1.260084228515625,0.5289955139160156,-1.3797812461853027,-0.7429471015930176
1761235843927123700,1.278123779296875,0.5725784301757812,-1.2249608039855957,-0.6347578763961792
1761235843945161700,1.29616162109375,0.45611572265625,-0.9599776268005372,-0.2895967960357666
1761235843963201800,1.314201904296875,0.1569337844848632,-0.5966243743896484,-0.0132471323013305
1761235843981239300,1.3322392578125,-0.1220669746398925,-0.3284320831298828,0.0912157297134399
1761235843999276500,1.350276611328125,-0.3091688156127929,-0.1791968345642089,0.1701091527938842
1761235844017316900,1.36831689453125,-0.6312355995178223,-0.0036821365356445,0.2290829420089721
1761235844035359000,1.38635888671875,-0.9361181259155272,0.2180008888244629,0.3119087219238281
1761235844053394000,1.404393798828125,-1.0735816955566406,0.4533529281616211,0.4818849563598633
1761235844071434000,1.42243408203125,-1.192546844482422,0.6624875068664551,0.7349683046340942
1761235844089459700,1.440459716796875,-1.2186260223388672,0.7742152214050293,0.9671765565872192
1761235844107511600,1.458511474609375,-0.9588737487792968,0.7322931289672852,1.0507675409317017
1761235844125549300,1.47654931640625,-0.6694231033325195,0.488102912902832,0.8353853225708008
1761235844143589400,1.49458935546875,-0.4698386192321777,0.2889151573181152,0.4645754098892212
1761235844161625900,1.5126259765625,-0.3626585006713867,0.1203994750976562,0.1811584234237671
1761235844179666400,1.53066650390625,-0.3659305572509765,-0.0445342063903808,-0.0743049383163452
1761235844197706000,1.5487060546875,-0.2378492355346679,-0.06866455078125,-0.3470296859741211
1761235844215744300,1.566744140625,0.0478992462158203,0.0987095832824707,-0.4016820192337036
1761235844233781500,1.584781494140625,0.397369384765625,0.4158749580383301,-0.1987528800964355
1761235844251820500,1.602820556640625,0.7725553512573242,0.5867481231689453,0.0264668464660644
1761235844269859600,1.620859619140625,1.414200782775879,0.5044159889221191,0.0671209096908569
1761235844287899000,1.63889892578125,2.0559234619140625,0.2899837493896484,-0.1426254510879516
1761235844305937200,1.656937255859375,2.1527271270751958,0.4042654037475586,-0.8537355661392212
1761235844323977200,1.674977294921875,1.5618677139282229,0.8556966781616211,-1.466269612312317
1761235844342014200,1.69301416015625,0.7726931571960449,1.2404017448425293,-1.4785293340682983
1761235844360054000,1.711053955078125,-0.1188282966613769,1.6569490432739258,-0.6632080078125
1761235844378092000,1.729092041015625,-0.3688125610351562,1.6036605834960938,1.0745701789855957
1761235844396128500,1.74712841796875,1.3981475830078125,1.068624496459961,2.2153921127319336
1761235844411928800,1.7629287109375,4.669467926025391,-1.079819679260254,2.187549829483032
1761235844429954000,1.7809541015625,4.456275939941406,-1.87105655670166,1.3200974464416504
1761235844447993300,1.798993408203125,2.585963249206543,-2.4431092739105225,0.1813952922821045
1761235844466032000,1.8170322265625,0.6007499694824219,-2.563671588897705,-0.2119170427322387
1761235844484068000,1.835068115234375,-0.7947173118591309,-2.2689337730407715,-0.4956365823745727
1761235844502112300,1.8531123046875,-1.3471927642822266,-1.738123655319214,-0.4984036684036255
1761235844520148000,1.87114794921875,-1.400134563446045,-1.372415542602539,-0.1833232641220092
1761235844538186800,1.889186767578125,-1.7335753440856934,-1.1452879905700684,0.2166115045547485
1761235844556222200,1.90722216796875,-2.2190566062927246,-1.0657920837402344,0.779379665851593
1761235844574264800,1.925264892578125,-1.9441142082214355,-0.807866096496582,1.3083577156066897
1761235844592303600,1.9433037109375,-0.8910293579101562,-0.665804386138916,1.8679606914520264
1761235844610342000,1.961341796875,-0.1033468246459961,-0.8515443801879883,2.0017611980438232
1761235844628381200,1.979381103515625,0.0864181518554687,-1.1537652015686035,1.2634179592132568
1761235844646419700,1.997419677734375,0.1071686744689941,-1.4766840934753418,0.3399180173873901
1761235844664458800,2.015458740234375,0.0886125564575195,-1.5955195426940918,-0.2650015354156494
1761235844682497000,2.0334970703125,0.0004229545593261,-1.4286322593688965,-0.4733513593673706
1761235844700532200,2.0515322265625,-0.0050935745239257,-0.9335174560546876,-0.1162432432174682
1761235844718562600,2.0695625,0.0214123725891113,-0.3213076591491699,0.5446028709411621
1761235844736613600,2.087613525390625,0.0155134201049804,0.0577893257141113,0.9434787034988404
1761235844754652200,2.105652099609375,-0.0544495582580566,0.2589483261108398,1.0960054397583008
1761235844772691000,2.12369091796875,-0.2021050453186035,0.1516590118408203,1.0096837282180786
1761235844790729700,2.141729736328125,-0.4389219284057617,0.0630669593811035,0.7327486276626587
1761235844808768500,2.1597685546875,-0.4878201484680176,-0.0729637145996093,0.3493999242782593
1761235844826807300,2.177807373046875,-0.5536441802978516,-0.108619213104248,0.311644434928894
1761235844844846000,2.19584619140625,-0.4574675559997558,0.006591796875,0.4161456823348999
1761235844862884900,2.213884765625,-0.2789812088012695,0.0255632400512695,0.5897945165634155
1761235844880923600,2.231923583984375,-0.0102510452270507,-0.0176396369934082,0.7344576120376587
1761235844898962400,2.24996240234375,0.1512656211853027,-0.1244735717773437,0.8128147721290588
1761235844917001200,2.268001220703125,0.1008448600769043,-0.2292089462280273,0.8591146469116211
1761235844935040000,2.2860400390625,-0.2022128105163574,-0.3574090003967285,0.8410755395889282
1761235844953073400,2.304073486328125,-0.4298691749572754,-0.2694129943847656,0.6628502607345581
1761235844971117000,2.322116943359375,-0.5089941024780273,-0.0498905181884765,0.611441969871521
1761235844989155800,2.34015576171875,-0.6110973358154297,0.3299589157104492,0.726564884185791
1761235845007194600,2.358194580078125,-0.4908409118652344,0.6084189414978027,0.6755833625793457
1761235845025233400,2.3762333984375,-0.1344003677368164,0.5775432586669922,0.6417384147644043
1761235845043272400,2.3942724609375,0.5416874885559082,0.4775357246398926,0.3238358497619629
1761235845061311200,2.412311279296875,1.1223220825195312,0.3290390968322754,-0.1491233110427856
1761235845079350000,2.43035009765625,1.3806180953979492,0.2442779541015625,-0.5378010272979736
1761235845097388500,2.448388427734375,1.2126526832580566,0.4748187065124511,-0.8926846981048584
1761235845115427300,2.46642724609375,0.6511530876159668,0.8006081581115723,-0.875359296798706
1761235845133466000,2.484466064453125,0.2191486358642578,1.408708572387695,-0.8070381879806519
1761235845151490000,2.502489990234375,-0.1213002204895019,1.761852741241455,-0.5161961317062378
1761235845169546500,2.52054638671875,-0.3321475982666015,1.727827548980713,0.3931971788406372
1761235845187582000,2.53858203125,0.6266660690307617,1.267072677612305,1.202039361000061
1761235845205621000,2.55662109375,2.7012834548950195,0.1268324851989746,1.2292770147323608
1761235845223659800,2.57465966796875,4.113133430480957,-1.135664939880371,0.3635023832321167
1761235845241698000,2.592697998046875,3.350736618041992,-2.0397298336029053,-0.9285053014755248
1761235845259738400,2.61073828125,1.1465349197387695,-2.15364933013916,-1.8489364385604856
1761235845277776100,2.628776123046875,-0.8937911987304688,-1.6415953636169434,-1.8361533880233765
1761235845295815200,2.646815185546875,-1.771003246307373,-0.8376741409301758,-1.4551466703414917
1761235845313852200,2.66485205078125,-1.6173629760742188,-0.3505244255065918,-0.5305731296539307
1761235845331893800,2.682893798828125,-1.1467618942260742,-0.102823257446289,0.3260971307754516
1761235845349931300,2.70093115234375,-0.6279664039611816,-0.0672583580017089,0.7095904350280762
1761235845367969800,2.7189697265625,0.1622753143310547,-0.5341825485229492,0.6819231510162354
1761235845386005800,2.737005859375,0.8204493522644043,-1.1843996047973633,0.2652081251144409
1761235845404047600,2.755047607421875,1.2105321884155271,-1.6374764442443848,-0.1587328910827636
1761235845422075100,2.7730751953125,1.234601974487305,-1.8985528945922847,-0.4567635059356689
1761235845440126200,2.791126220703125,0.8655757904052734,-1.9094092845916748,-0.5369504690170288
1761235845458163700,2.809163818359375,0.3342981338500976,-1.662071704864502,-0.2253384590148925
1761235845476199000,2.827198974609375,-0.2065906524658203,-1.127525806427002,0.2606701850891113
1761235845494241000,2.845240966796875,-0.5855669975280762,-0.5850801467895508,0.614601731300354
1761235845512280300,2.8632802734375,-1.068279266357422,-0.2962946891784668,0.7873328328132629
1761235845530318300,2.881318359375,-1.5198464393615725,-0.1447405815124511,0.7195446491241455
1761235845548357600,2.899357666015625,-1.8410210609436035,-0.1482839584350586,0.5992894768714905
1761235845566396200,2.917396240234375,-1.8454289436340328,-0.0723986625671386,0.4395864605903625
1761235845584435000,2.93543505859375,-1.5493030548095703,-0.053659439086914,0.4009990692138672
1761235845602474000,2.953473876953125,-1.3213982582092283,-0.0092945098876953,0.3849163651466369
1761235845620512500,2.971512451171875,-1.2163333892822266,0.0929093360900878,0.3033802509307861
1761235845638551300,2.98955126953125,-0.7985095977783203,0.181854248046875,0.2922134399414062
1761235845656589800,3.00758984375,-0.0809965133666992,0.1951713562011718,0.4051037430763244
1761235845674628900,3.02562890625,0.615025520324707,0.1943230628967285,0.4336519241333008
1761235845692667400,3.04366748046875,1.1302194595336914,0.1384615898132324,0.3234087228775024
1761235845710706400,3.06170654296875,1.4283151626586914,0.0009288787841796,0.1805956959724426
1761235845728745000,3.079744873046875,1.610945701599121,-0.0457305908203125,0.0464897155761718
1761235845746784000,3.097783935546875,1.626114845275879,-0.0287222862243652,-0.0173213481903076
1761235845764822500,3.115822509765625,1.5602025985717771,0.0906181335449218,-0.2032175064086914
1761235845782861300,3.133861328125,1.3858623504638672,0.4023995399475097,-0.7892855405807495
1761235845800900000,3.151900146484375,0.8069086074829102,0.695711612701416,-1.1928260326385498
1761235845818940000,3.16993994140625,0.19537353515625,0.9057011604309082,-0.8384277820587158
1761235845836975900,3.187975830078125,0.0104608535766601,1.1849150657653809,-0.109989047050476
1761235845855016000,3.206015869140625,0.3909130096435547,1.1424803733825684,1.0891276597976685
1761235845873054700,3.2240546875,1.5640544891357422,0.873903751373291,1.6587852239608765
1761235845891090200,3.242090087890625,2.622735977172852,-0.0783314704895019,1.9945027828216555
1761235845909132800,3.2601328125,2.9745092391967773,-0.95521879196167,1.5292779207229614
1761235845927171300,3.27817138671875,2.2848854064941406,-1.612919807434082,0.4829907417297363
1761235845945210000,3.296210205078125,0.6765899658203125,-1.966114044189453,-0.3606078624725342
1761235845963236900,3.31423681640625,-0.6064014434814453,-1.7389049530029297,-0.9394809007644652
1761235845981273300,3.3322734375,-1.2829837799072266,-1.26255464553833,-1.0076920986175537
1761235845999329500,3.35032958984375,-1.6551661491394043,-0.8560199737548828,-0.4678070545196533
1761235846017364700,3.36836474609375,-1.6899690628051758,-0.4793133735656738,0.3468548059463501
1761235846035403500,3.386403564453125,-1.6251087188720703,-0.228219985961914,1.1104304790496826
1761235846053442300,3.4044423828125,-1.1267776489257812,-0.2189235687255859,1.3950060606002808
1761235846071481300,3.4224814453125,-0.0929083824157714,-0.6343564987182617,0.9660556316375732
1761235846089521000,3.44052099609375,0.2748050689697265,-1.1625618934631348,0.0045124292373657
1761235846107559000,3.458558837890625,0.3762245178222656,-1.410914421081543,-0.8954373598098755
1761235846125597400,3.476597412109375,0.2921333312988281,-1.5141606330871582,-1.3073779344558716
1761235846143636000,3.494635986328125,0.0416984558105468,-1.216019630432129,-1.364166498184204
1761235846161673700,3.512673828125,-0.3118190765380859,-0.6416568756103516,-0.90782630443573
1761235846179714600,3.530714599609375,-0.4554824829101562,-0.1072854995727539,-0.2273561954498291
1761235846197752300,3.54875244140625,-0.5751953125,0.2346715927124023,0.3401259183883667
1761235846215791400,3.566791259765625,-0.7751812934875488,0.347877025604248,0.7042049169540405
1761235846233829600,3.58482958984375,-1.0403108596801758,0.2785596847534179,0.721605658531189
1761235846251867400,3.602867431640625,-1.1565561294555664,0.1108260154724121,0.4982795715332031
1761235846269908500,3.620908447265625,-0.8646183013916016,-0.1405725479125976,0.3112140893936157
1761235846287946200,3.6389462890625,-0.3860292434692383,-0.2741727828979492,0.284276008605957
1761235846305984800,3.65698486328125,-0.1179084777832031,-0.2984170913696289,0.3359442949295044
1761235846324023300,3.675023193359375,-0.0082511901855468,-0.2388215065002441,0.430672287940979
1761235846342062000,3.69306201171875,0.0670957565307617,-0.023965835571289,0.5058259963989258
1761235846360100900,3.711100830078125,-0.0405492782592773,0.2781605720520019,0.6759771108627319
1761235846378140200,3.72914013671875,-0.0129652023315429,0.6106233596801758,0.6933320760726929
1761235846396175400,3.74717529296875,0.106541633605957,0.7113900184631348,0.6884875297546387
1761235846414217700,3.7652177734375,0.2234525680541992,0.7519783973693848,0.6952911615371704
1761235846432256000,3.783256103515625,0.3659095764160156,0.7880496978759766,0.7276715040206909
1761235846450294500,3.80129443359375,0.5087614059448242,0.7154221534729004,0.7368381023406982
1761235846468333600,3.81933349609375,0.5417118072509766,0.4833102226257324,0.6347866058349609
1761235846486370800,3.837370849609375,0.4902572631835937,0.2729134559631347,0.3546596765518188
1761235846504412400,3.855412353515625,0.5329723358154297,0.2159805297851562,0.0251520872116088
1761235846522449400,3.873449462890625,0.8067178726196289,0.4729452133178711,-0.3831307888031006
1761235846540488400,3.891488525390625,0.7840147018432617,0.9099912643432616,-0.6356797218322754
1761235846558527000,3.90952685546875,0.4728126525878906,1.317793369293213,-0.6015133857727051
1761235846576561400,3.9275615234375,0.4426870346069336,1.6320571899414062,-0.0052530765533447
1761235846594604500,3.9456044921875,1.0595598220825195,1.560276985168457,0.7216871380805969
1761235846612643000,3.96364306640625,1.868549346923828,0.6278805732727051,1.0496052503585815
1761235846630682000,3.98168212890625,2.8319692611694336,-0.5391197204589844,0.4502905607223511
1761235846648720400,3.999720458984375,3.208480834960937,-1.653951644897461,-0.5568116903305054
1761235846666760200,4.01776025390625,2.3978052139282227,-2.2127678394317627,-1.6504735946655271
1761235846684798500,4.035798583984375,0.650728702545166,-2.1417689323425293,-2.164815664291382
1761235846702837000,4.0538369140625,-0.8857607841491699,-1.528120994567871,-1.980411529541016
1761235846720875500,4.07187548828125,-1.739551067352295,-0.8274216651916504,-1.1712461709976196
1761235846738914800,4.089914794921875,-1.624171257019043,-0.4893546104431152,-0.0434508323669433
1761235846756953000,4.107953125,-0.3763422966003418,-0.592231273651123,0.6056233644485474
1761235846774992400,4.125992431640625,1.1005048751831057,-1.1171321868896484,0.8435160517692566
1761235846793030700,4.14403076171875,2.106040477752685,-1.7206435203552246,0.8319397568702698
1761235846811069200,4.162069091796875,1.9787116050720213,-2.325019121170044,0.441267728805542
1761235846829108000,4.18010791015625,0.9794983863830566,-2.7699503898620605,-0.1815838813781738
1761235846847147000,4.19814697265625,0.1545677185058593,-2.957805156707764,-0.660554051399231
1761235846865185800,4.216185791015625,-0.3874101638793945,-2.7619473934173584,-0.6617152690887451
1761235846883224600,4.234224609375,-1.0003423690795898,-2.090454578399658,-0.1005574464797973
1761235846901263400,4.252263427734375,-1.4975099563598633,-1.3595423698425293,0.4936211109161377
1761235846919307300,4.270307373046875,-2.075377941131592,-0.8044919967651367,0.9133485555648804
1761235846937341000,4.2883408203125,-2.4710516929626465,-0.3263068199157715,1.0894622802734375
1761235846955379500,4.30637939453125,-2.554639339447021,-0.0589838027954101,1.1111457347869873
1761235846973418200,4.324418212890625,-2.4113082885742188,0.0825309753417968,1.0703558921813965
1761235846991456500,4.34245654296875,-1.8487248420715328,0.2069454193115234,0.8728403449058533
1761235847009495600,4.36049560546875,-1.1247735023498535,0.2340025901794433,0.7614257335662842
1761235847027534300,4.378534423828125,-0.552520751953125,0.2320690155029297,0.7943539619445801
1761235847045573000,4.396572998046875,0.0166845321655273,0.2762379646301269,0.8226782083511353
1761235847063612000,4.41461181640625,0.5906791687011719,0.2996697425842285,0.7563058733940125
1761235847081650000,4.43264990234375,1.010909080505371,0.2823343276977539,0.5591667890548706
1761235847099690200,4.450690185546875,1.2132110595703125,0.2052555084228515,0.3144465684890747
1761235847117728300,4.468728271484375,1.416478157043457,0.0888271331787109,0.1026241779327392
1761235847135767000,4.48676708984375,1.715463638305664,-0.1268815994262695,0.0696632862091064
1761235847153804000,4.504803955078125,2.274125099182129,-0.4376897811889648,0.013936161994934
1761235847171845400,4.522845458984375,2.629119873046875,-0.671419620513916,-0.4423283338546753
1761235847189883000,4.5408828125,2.3229846954345703,-0.6245346069335938,-1.3328980207443235
1761235847207921400,4.55892138671875,1.0350685119628906,-0.0230131149291992,-2.1993374824523926
1761235847225944300,4.5769443359375,-0.5995550155639648,0.5536060333251953,-2.167013168334961
1761235847243999500,4.59499951171875,-1.346238136291504,1.2232275009155271,-1.5419955253601074
1761235847262038000,4.6130380859375,-0.6770954132080078,1.509024143218994,-0.0687094926834106
1761235847280077000,4.6310771484375,0.8517332077026367,1.2604012489318848,1.3901057243347168
1761235847298115800,4.64911572265625,2.940580368041992,0.5532207489013672,2.007354259490967
1761235847316149200,4.667149169921875,4.351214408874512,-0.3640346527099609,1.7839624881744385
1761235847334194400,4.6851943359375,3.780634880065918,-1.3296539783477783,0.8680142164230347
1761235847352231400,4.7032314453125,2.0593185424804688,-1.8113999366760252,-0.2198191881179809
1761235847370270200,4.721270263671875,0.4195222854614258,-1.721247911453247,-0.6255431175231934
1761235847388308500,4.73930859375,-0.5099401473999023,-1.0724797248840332,-0.6213200092315674
1761235847406343200,4.75734326171875,-0.9359130859375,-0.3591485023498535,-0.2512063980102539
1761235847424386300,4.77538623046875,-1.3308219909667969,0.2000589370727539,0.6659066081047058
1761235847442425300,4.79342529296875,-1.5471105575561523,0.575523853302002,1.4819592237472534
1761235847460464000,4.811464111328125,-1.4076685905456543,0.5921626091003418,2.092257022857666
1761235847478502400,4.82950244140625,-0.7450151443481445,0.3012356758117676,2.131946563720703
1761235847496541400,4.84754150390625,-0.0907573699951171,-0.2088499069213867,1.3020377159118652
1761235847514580200,4.865580322265625,-0.0651006698608398,-0.6459498405456543,0.4086349606513977
1761235847532618800,4.88361865234375,-0.255096435546875,-0.9214868545532228,-0.2030979394912719
1761235847550657800,4.90165771484375,-0.3649206161499023,-0.9208950996398926,-0.4552103281021118
1761235847568696600,4.919696533203125,-0.1792545318603515,-0.7064337730407715,-0.1842126846313476
1761235847586740000,4.937739990234375,-0.1617584228515625,-0.3353776931762695,0.4123027324676513
1761235847604774000,4.95577392578125,-0.5216159820556641,0.0768866539001464,0.899198591709137
1761235847622812700,4.973812744140625,-0.9609308242797852,0.2338557243347168,1.1263368129730225
1761235847640851200,4.991851318359375,-1.225405216217041,0.1126961708068847,1.0490487813949585
1761235847658889700,5.0098896484375,-1.246018409729004,-0.1504383087158203,0.7755316495895386
1761235847676928500,5.027928466796875,-0.96392822265625,-0.3429231643676758,0.653486967086792
1761235847694967000,5.045967041015625,-0.6874833106994629,-0.3946065902709961,0.5993401408195496
1761235847712995000,5.0639951171875,-0.4234285354614258,-0.3829946517944336,0.598341703414917
1761235847731045600,5.082045654296875,-0.4157657623291015,-0.3694701194763183,0.5422163009643555
1761235847749084000,5.100083984375,-0.6544809341430664,-0.3611788749694824,0.4378117322921753
1761235847767122400,5.118122314453125,-0.5741748809814453,-0.2032580375671386,0.4159609079360962
1761235847785161200,5.1361611328125,-0.2876410484313965,0.2614688873291015,0.6306040287017822
1761235847803200000,5.154199951171875,-0.0390386581420898,0.4517679214477539,0.7053886651992798
1761235847821235700,5.172235595703125,0.098484992980957,0.4170179367065429,0.420770525932312
1761235847839280000,5.190280029296875,0.2405424118041992,0.2327237129211425,0.3527063131332397
1761235847857315800,5.20831591796875,0.1377477645874023,0.235361099243164,0.3520543575286865
1761235847875354600,5.226354736328125,0.3170070648193359,0.4282822608947754,0.4979615211486816
1761235847893393200,5.24439306640625,1.038066864013672,0.2256674766540527,0.5702623128890991
1761235847911432200,5.26243212890625,1.603653907775879,-0.0930113792419433,0.2346580028533935
1761235847929470700,5.280470703125,1.6736297607421875,-0.1529731750488281,-0.6004247665405273
1761235847947509800,5.298509765625,1.072765827178955,0.2128753662109375,-1.39320969581604
1761235847965548300,5.31654833984375,0.0257587432861328,0.7907571792602539,-1.3837335109710691
1761235847983586800,5.3345869140625,-0.7426896095275879,1.3644037246704102,-0.5360846519470215
1761235848001625300,5.352625244140625,-0.2614402770996094,1.4532537460327148,0.7618362903594971
1761235848019665400,5.37066552734375,1.6145849227905271,0.583043098449707,1.3155986070632937
1761235848037703000,5.388702880859375,3.531306743621826,-0.8722190856933594,0.8478240966796875
1761235848055741700,5.40674169921875,4.047623634338379,-1.859086036682129,-0.2680532932281494
1761235848073780500,5.424780517578125,2.692817211151123,-2.1261472702026367,-0.9897472858428956
1761235848091819500,5.442819580078125,0.7095880508422852,-1.7325913906097412,-1.2806243896484375
1761235848109858300,5.4608583984375,-0.8347482681274414,-1.0568609237670898,-1.3655359745025637
1761235848127897000,5.47889697265625,-1.8606610298156736,-0.5922937393188477,-0.9009497165679932
1761235848145935400,5.496935302734375,-2.3337597846984863,-0.3734335899353027,-0.1122884750366211
1761235848163974100,5.51497412109375,-1.5548653602600098,-0.4276943206787109,0.5845144987106323
1761235848182013200,5.53301318359375,0.0439705848693847,-0.9017443656921388,0.7480678558349609
1761235848200052000,5.551052001953125,1.3503785133361816,-1.3574175834655762,0.5545127391815186
1761235848218090500,5.569090576171875,1.631803035736084,-1.6997253894805908,0.22383713722229
1761235848236126000,5.5871259765625,0.8013653755187988,-1.821239709854126,-0.1677720546722412
1761235848254167800,5.605167724609375,0.0316953659057617,-1.7085299491882324,-0.4748485088348388
1761235848272206800,5.623206787109375,-0.289121150970459,-1.6447768211364746,-0.4576508998870849
1761235848290245000,5.6412451171875,-0.5699739456176758,-1.346086502075195,-0.2434377670288086
1761235848308284000,5.659283935546875,-0.9833393096923828,-0.7838988304138184,0.2755218744277954
1761235848326322400,5.677322509765625,-1.2019009590148926,-0.4614672660827636,0.6757943630218506
1761235848344361500,5.695361572265625,-1.303544521331787,-0.3294734954833984,0.6599055528640747
1761235848362400000,5.71339990234375,-1.423257827758789,-0.2198848724365234,0.5881834030151367
1761235848380439000,5.73143896484375,-1.461964130401611,-0.1597809791564941,0.5762244462966919
1761235848398477800,5.749477783203125,-1.3764352798461914,-0.0857319831848144,0.449392557144165
1761235848416516400,5.767516357421875,-1.1046133041381836,-0.1191239356994628,0.415166974067688
1761235848434555100,5.78555517578125,-0.7728586196899414,-0.1222443580627441,0.4273420572280884
1761235848452594000,5.803593994140625,-0.5276761054992676,-0.0092778205871582,0.4020203351974487
1761235848470629400,5.82162939453125,-0.1809449195861816,0.1930556297302246,0.5585360527038574
1761235848488672000,5.839672119140625,0.198155403137207,0.3372244834899902,0.8084849715232849
1761235848506713000,5.857713134765625,0.4985313415527344,0.3617868423461914,0.8508180379867554
1761235848524748500,5.87574853515625,0.8403387069702148,0.2380781173706054,0.7367827892303467
1761235848542787600,5.89378759765625,1.4394521713256836,0.0777869224548339,0.5535556674003601
1761235848560814300,5.911814453125,2.030752182006836,-0.0358481407165527,0.3684365749359131
1761235848578865200,5.929865234375,2.742690086364746,-0.0103397369384765,-0.1855863332748413
1761235848596903700,5.947903564453125,3.01833438873291,0.3102345466613769,-1.111392855644226
1761235848614942500,5.9659423828125,1.8822221755981443,0.6254010200500488,-1.361725091934204
1761235848632981200,5.983981201171875,0.4359693527221679,0.8901772499084473,-0.8595602512359619
1761235848651015000,6.002014892578125,0.2363510131835937,0.9877200126647948,0.0713229179382324
1761235848669063400,6.0200634765625,1.2577524185180664,0.358917236328125,0.9622499346733092
1761235848687097300,6.038097412109375,2.22353744506836,-0.3897905349731445,1.292818307876587
1761235848705135900,6.056135986328125,2.458446502685547,-1.0615758895874023,1.3023622035980225
1761235848723162600,6.07416259765625,1.7727975845336914,-1.3585491180419922,0.9536111950874328
1761235848741213400,6.09221337890625,0.5730352401733398,-1.4860754013061523,0.737639307975769
1761235848759241000,6.110240966796875,-0.3624186515808105,-1.55792236328125,0.3868894577026367
1761235848777291300,6.128291259765625,-0.8939495086669922,-1.3532462120056152,0.003169298171997
1761235848795329300,6.146329345703125,-1.417341709136963,-1.064354419708252,-0.122400164604187
1761235848813368000,6.1643681640625,-2.025610446929932,-0.7843751907348633,-0.0698931217193603
1761235848831406800,6.18240673828125,-2.4849672317504883,-0.5035953521728516,0.2257908582687378
1761235848849445400,6.2004453125,-2.7415919303894043,-0.3237667083740234,0.7741009593009949
1761235848867484400,6.218484375,-2.4648590087890625,-0.0337810516357421,1.442479133605957
1761235848885523500,6.2365234375,-1.0279250144958496,0.1210565567016601,1.7567943334579468
1761235848903562000,6.25456201171875,0.4940834045410156,-0.4355216026306152,1.2835404872894287
1761235848921587500,6.27258740234375,1.4133691787719729,-0.9840221405029296,0.084997534751892
1761235848939640300,6.290640380859375,1.2321596145629885,-1.270179271697998,-0.7332804203033447
1761235848957678000,6.308677978515625,0.4654817581176758,-1.1316447257995603,-1.0657472610473633
1761235848975716400,6.32671630859375,-0.0407619476318359,-0.5032696723937988,-0.7550106048583984
1761235848993755400,6.34475537109375,-0.1115865707397461,0.2243871688842773,0.0130562782287597
1761235849011794000,6.3627939453125,-0.1722517013549804,0.6287059783935547,0.614952802658081
1761235849029832400,6.38083251953125,-0.3392891883850097,0.8105177879333496,0.8729161620140076
1761235849077183000,6.428182861328125,-0.5581884384155273,0.5781979560852051,0.8805569410324097
1761235849095222300,6.44622216796875,-0.5199222564697266,0.4148192405700683,0.7475683689117432
1761235849113253400,6.46425341796875,-0.7165851593017578,0.2507638931274414,0.5672330856323242
1761235849131299300,6.48229931640625,-0.7682867050170898,0.1086235046386718,0.4099850654602051
1761235849149337900,6.500337890625,-0.6479902267456055,0.0098047256469726,0.3052428960800171
1761235849167374600,6.51837451171875,-0.4736146926879883,-0.0164484977722167,0.2178188562393188
1761235849185416000,6.536416015625,-0.2796921730041504,0.1169147491455078,0.1798298358917236
1761235849203443000,6.55444287109375,-0.1665172576904297,0.4474763870239258,0.1573367118835449
1761235849221493000,6.572492919921875,0.0244770050048828,0.7455644607543945,0.2457815408706665
1761235849239535000,6.59053515625,0.4714899063110351,0.924790859222412,0.3655078411102295
1761235849257569500,6.608569580078125,1.1875019073486328,0.9800252914428712,0.307598352432251
1761235849275609300,6.626609375,2.108584403991699,0.7351117134094238,0.1297545433044433
1761235849293632300,6.64463232421875,2.848526954650879,0.5817904472351074,-0.5527145862579346
1761235849311686100,6.66268603515625,2.9448184967041016,0.7466135025024414,-1.273226618766785
1761235849329725400,6.680725341796875,1.9962043762207031,1.1008658409118652,-1.4832303524017334
1761235849347764500,6.698764404296875,0.7385272979736328,1.624898910522461,-1.3153271675109863
1761235849365802200,6.71680224609375,-0.2681655883789062,1.742210865020752,-0.2181954383850097
1761235849383842300,6.73484228515625,0.8351211547851562,1.4071836471557615,0.6842858791351318
1761235849408740900,6.759740966796875,4.305196762084961,-0.903742790222168,0.4639838933944702
1761235849426683000,6.777682861328125,3.572484016418457,-1.4896116256713867,0.2820197343826294
1761235849444724200,6.79572412109375,2.061788558959961,-1.7997469902038574,-0.0979351997375488
1761235849462762500,6.813762451171875,0.8411474227905273,-2.09506893157959,-0.4083120822906494
1761235849480800800,6.83180078125,-0.3454995155334472,-2.0673534870147705,-0.6278076171875
1761235849498838000,6.849838134765625,-1.351165771484375,-1.7920184135437012,-0.6275146007537842
1761235849516879400,6.86787939453125,-1.8237009048461916,-1.4608612060546875,-0.4382405281066894
1761235849534916900,6.885916748046875,-2.015552520751953,-1.2268381118774414,-0.2593452930450439
1761235849552954000,6.9039541015625,-2.0358896255493164,-1.1108121871948242,-0.1316275596618652
1761235849570995200,6.9219951171875,-1.5336976051330566,-1.195056438446045,0.1414265632629394
1761235849589032400,6.940032470703125,-0.4937376976013183,-1.3538942337036133,0.2377992868423462
1761235849607070000,6.958070068359375,-0.3369483947753906,-1.478960037231445,0.5212897062301636
1761235849625103400,6.976103271484375,-0.8275785446166992,-1.5387086868286133,0.5315046310424805
1761235849643149000,6.994149169921875,-1.1788382530212402,-1.7333521842956543,0.4353770017623901
1761235849661187800,7.012187744140625,-0.935518741607666,-1.7474913597106934,0.2203186750411987
1761235849679227000,7.030226806640625,-0.1663398742675781,-1.6889605522155762,0.196858525276184
1761235849697265200,7.04826513671875,0.6116056442260742,-1.6359100341796875,0.0959792137145996
1761235849715304200,7.06630419921875,0.9999771118164062,-1.5080819129943848,-0.1486098766326904
1761235849733342700,7.0843427734375,0.6088528633117676,-1.190178394317627,-0.0201658010482788
1761235849751381200,7.10238134765625,-0.4575147628784179,-0.8072957992553711,0.1968271732330322
1761235849769419300,7.120419189453125,-1.2905340194702148,-0.4568314552307129,0.0538266897201538
1761235849787458600,7.13845849609375,-1.6113004684448242,-0.2369747161865234,0.0803859233856201
1761235849805497300,7.156497314453125,-1.160322666168213,0.0430216789245605,0.2338136434555053
1761235849823536400,7.174536376953125,-0.5415463447570801,0.2310352325439453,0.4162099361419678
1761235849841574700,7.19257470703125,-0.3461613655090332,0.2969694137573242,0.6073364019393921
1761235849859613200,7.21061328125,-0.2253594398498535,0.4028615951538086,0.6320708990097046
1761235849877652500,7.228652587890625,0.1476750373840332,0.4845986366271972,0.5818066596984863
1761235849895690500,7.2466904296875,0.7874994277954102,0.42340087890625,0.43346107006073
1761235849913729500,7.2647294921875,0.8851900100708008,0.295318603515625,0.2140562534332275
1761235849931768300,7.282768310546875,0.5106105804443359,0.4095749855041504,0.0052003860473632
1761235849949807400,7.300807373046875,0.2096552848815918,0.5011072158813477,-0.0416224002838134
1761235849967845600,7.318845703125,0.5480451583862305,0.4911103248596191,-0.042012333869934
1761235849985884700,7.336884765625,1.1374530792236328,0.3497538566589355,-0.1794140338897705
1761235850003920000,7.354919921875,1.7950868606567385,0.2449893951416015,-0.4586131572723388
1761235850021962000,7.3729619140625,2.350414276123047,0.2892613410949707,-0.8215057849884033
1761235850040000300,7.391000244140625,2.279317855834961,0.598444938659668,-1.0616698265075684
1761235850058039000,7.4090390625,1.0437073707580566,0.7211236953735352,-0.5163058042526245
1761235850076077800,7.427077880859375,-0.0545969009399414,0.9212002754211426,0.0444294214248657
1761235850094112000,7.445112060546875,0.082252025604248,0.7892522811889648,0.5368518829345703
1761235850112155400,7.4631552734375,0.742161750793457,0.1489877700805664,0.8028246760368347
1761235850130194000,7.48119384765625,1.6137471199035645,-0.4743819236755371,0.6907373666763306
1761235850148232700,7.499232666015625,1.857358455657959,-1.0238323211669922,0.5570844411849976
1761235850166271500,7.517271484375,1.4341034889221191,-1.4245390892028809,0.2206391096115112
1761235850184310000,7.53531005859375,0.6229557991027832,-1.5634336471557615,-0.014906883239746
1761235850202347300,7.55334716796875,0.0351505279541015,-1.467667579650879,-0.2269140481948852
1761235850220390100,7.57139013671875,-0.4319424629211426,-1.3837833404541016,0.0285934209823608
1761235850238426000,7.589426025390625,-0.7784090042114258,-1.085495948791504,0.26111900806427
1761235850256464600,7.607464599609375,-0.971501350402832,-0.8134365081787109,0.4756052494049072
1761235850274503400,7.62550341796875,-1.3710479736328125,-0.7260313034057617,0.6844444274902344
1761235850292526000,7.643526123046875,-1.4881315231323242,-0.5888381004333496,0.6979392766952515
1761235850310581200,7.661581298828125,-0.8590421676635742,-0.6256742477416992,0.5884063243865967
1761235850328619500,7.67961962890625,0.0959429740905761,-0.8833341598510742,0.0814874172210693
1761235850346658600,7.697658447265625,0.5200486183166504,-1.0621066093444824,-0.3951430320739746
1761235850364697000,7.715697021484375,0.6586341857910156,-0.9979805946350098,-0.7958855628967285
1761235850382736100,7.733736083984375,0.4367966651916504,-0.841893196105957,-0.8719861507415771
1761235850400775000,7.75177490234375,-0.0424761772155761,-0.6163930892944336,-0.713721752166748
1761235850418813200,7.769813232421875,-0.3902411460876465,-0.2689056396484375,-0.2548592090606689
1761235850436852200,7.787852294921875,-0.6643586158752441,-0.0319151878356933,0.2031441926956176
1761235850454890500,7.805890380859375,-0.7961001396179199,0.0912923812866211,0.4419846534729004
1761235850472929300,7.82392919921875,-0.8067498207092285,0.0271382331848144,0.5709841251373291
1761235850490967800,7.8419677734375,-0.7658977508544922,-0.1703381538391113,0.4176521301269531
1761235850509006800,7.8600068359375,-0.4379863739013672,-0.4289259910583496,0.5322661399841309
1761235850527045400,7.87804541015625,-1.4980545043945312,0.2697844505310058,0.1265137195587158
1761235850545084200,7.896084228515625,-0.2975988388061523,-0.0375118255615234,0.0011734962463378
1761235850563122700,7.914122802734375,0.6615285873413086,-0.4294991493225097,0.2526347637176513
1761235850581161700,7.93216162109375,0.6230020523071289,-0.4910392761230469,0.0677993297576904
1761235850599200500,7.950200439453125,-0.1671743392944336,-0.5882859230041504,-0.5053129196166992
1761235857627524600,0.125524658203125,-0.5766777992248535,-0.7711143493652344,0.4805842638015747
1761235857645561000,0.14356103515625,-0.7503247261047363,-0.8894343376159668,0.4513951539993286
1761235857663599600,0.161599609375,-0.6981306076049805,-1.2454962730407717,0.450080931186676
1761235857681637600,0.1796376953125,-0.727057933807373,-1.4187159538269043,0.3739490509033203
1761235857699674600,0.197674560546875,-0.7933926582336426,-1.4624433517456057,0.4010893106460571
1761235857717718000,0.215718017578125,-0.6394252777099609,-1.6007838249206543,0.4239432215690613
1761235857735753700,0.233753662109375,-0.6422114372253418,-1.815197467803955,0.4681764245033264
1761235857753793000,0.25179296875,-0.7821784019470215,-1.81805419921875,0.4571776390075683
1761235857771829800,0.269829833984375,-0.984710693359375,-1.6930794715881348,0.3920717239379883
1761235857789871400,0.287871337890625,-1.2645316123962402,-1.497025489807129,0.262494683265686
1761235857807908600,0.30590869140625,-1.2874126434326172,-1.1144413948059082,-0.057616114616394
1761235857825947600,0.32394775390625,-0.6041603088378906,-0.8990998268127441,-0.3062572479248047
1761235857843986000,0.34198583984375,0.7560534477233887,-1.163896083831787,-0.4485348463058471
1761235857862022100,0.360022216796875,1.4688372611999512,-1.080855369567871,-0.7346486449241638
1761235857880065500,0.3780654296875,0.9255962371826172,-0.6035432815551758,-0.6800820827484131
1761235857898102300,0.396102294921875,0.2702455520629883,0.0722932815551757,-0.4842903017997741
1761235857916136700,0.41413671875,0.2681117057800293,0.4960947036743164,-0.2241082787513733
1761235857934179000,0.432178955078125,0.3244237899780273,0.8135581016540527,0.0692183077335357
1761235857952211500,0.45021142578125,0.4406042098999023,1.0280556678771973,0.1357547640800476
1761235857970256600,0.468256591796875,0.5290651321411133,1.091134548187256,0.0192749202251434
1761235857988295200,0.486295166015625,0.2556133270263672,1.2349543571472168,-0.0540665388107299
1761235858006333700,0.504333740234375,-0.1795458793640136,1.736795425415039,-0.0120785757899284
1761235858024372500,0.52237255859375,-0.3598651885986328,2.022834300994873,0.1004829853773117
1761235858042411300,0.540411376953125,-0.3089532852172851,2.066102981567383,0.3057110011577606
1761235858060449000,0.558448974609375,-0.0968146324157714,2.0499930381774902,0.4579746723175049
1761235858078488300,0.57648828125,-0.0528841018676757,2.0480122566223145,0.6660531163215637
1761235858096522200,0.594522216796875,-0.1269335746765136,2.0744309425354004,0.799687385559082
1761235858114565600,0.612565673828125,-0.1827468872070312,2.0181260108947754,0.8649513125419617
1761235858132592400,0.63059228515625,-0.3591151237487793,1.93373441696167,0.8958356976509094
1761235858150643200,0.648643310546875,-0.5909767150878906,1.827087879180908,0.8228843212127686
1761235858168681500,0.666681396484375,-0.6528263092041016,1.723294734954834,0.9065157175064088
1761235858186720800,0.684720703125,-0.602015495300293,1.6250905990600586,0.9571557641029358
1761235858204758500,0.702758544921875,-0.4508719444274902,1.4836101531982422,0.7751098275184631
1761235858222797300,0.72079736328125,0.0563569068908691,1.3479366302490234,0.7071621417999268
1761235858240835800,0.7388359375,0.5099973678588867,1.275930881500244,0.6262333393096924
1761235858258875000,0.756875,0.5144476890563965,1.3241543769836426,0.6249266862869263
1761235858276913000,0.774912841796875,0.5913939476013184,1.4613332748413086,0.6896663308143616
1761235858294952200,0.7929521484375,0.8782896995544434,1.4722323417663574,0.6163895726203918
1761235858312978700,0.810978759765625,1.0824999809265137,1.478477954864502,0.3193197250366211
1761235858331029500,0.829029541015625,0.9956874847412108,1.3925623893737793,0.0322957634925842
1761235858349067800,0.84706787109375,0.5943803787231445,1.3099994659423828,-0.1102813482284545
1761235858367106600,0.8651064453125,0.9892129898071288,1.209001064300537,-0.2358047366142273
1761235858385145000,0.88314501953125,1.9758973121643064,0.931633472442627,-0.3115202188491821
1761235858403183600,0.90118359375,2.471322059631348,0.6258120536804199,-0.5813574194908142
1761235858421221600,0.9192216796875,2.2970261573791504,0.5124797821044922,-0.896826446056366
1761235858439261000,0.937260986328125,2.008474349975586,0.3720846176147461,-1.0927152633666992
1761235858457299700,0.9552998046875,2.09897518157959,-0.0001039505004882,-1.1313960552215576
1761235858475338500,0.97333837890625,2.7527894973754883,-0.4448986053466797,-1.1104024648666382
1761235858493376500,0.99137646484375,3.2024965286254883,-0.8494133949279785,-1.0942981243133545
1761235858511415800,1.009415771484375,2.957930088043213,-1.176400661468506,-1.306286334991455
1761235858529454600,1.02745458984375,2.2191781997680664,-1.321238994598389,-1.4286561012268066
1761235858547492600,1.04549267578125,1.2163872718811035,-1.2634787559509275,-1.4747884273529053
1761235858565529900,1.06352978515625,0.5973262786865234,-1.104738712310791,-1.4428517818450928
1761235858583571500,1.081571533203125,0.1640291213989257,-1.1232004165649414,-1.3115577697753906
1761235858601607700,1.099607666015625,0.0177898406982421,-1.1552767753601074,-1.377619981765747
1761235858619648500,1.1176484375,-0.0621633529663085,-1.2450742721557615,-1.325461745262146
1761235858637673500,1.135673583984375,-0.4019441604614258,-1.181157112121582,-1.041129469871521
1761235858655724800,1.153724853515625,-0.7903580665588379,-1.1264729499816897,-0.7577812671661377
1761235858673763000,1.17176318359375,-1.2328667640686035,-1.1275701522827148,-0.5359143614768982
1761235858691801900,1.1898017578125,-2.006190299987793,-1.1967458724975586,-0.433817058801651
1761235858709840100,1.207840087890625,-2.691349506378174,-1.321021556854248,-0.4898335039615631
1761235858727879200,1.225879150390625,-2.5241141319274902,-1.56837797164917,-0.6609611511230469
1761235858745918000,1.24391796875,-1.7802200317382812,-1.8882923126220703,-0.7476317286491394
1761235858763957000,1.26195703125,-1.0872058868408203,-2.0916810035705566,-0.8103302121162415
1761235858781994500,1.279994384765625,-0.6526575088500977,-2.0794901847839355,-0.8099644780158997
1761235858800035800,1.298035888671875,-0.5508575439453125,-1.9816274642944336,-0.7179005146026611
1761235858818072300,1.316072265625,-0.8522114753723145,-1.759760856628418,-0.6360914707183838
1761235858836107500,1.334107421875,-1.0184803009033203,-1.337165355682373,-0.3843394517898559
1761235858854149600,1.352149658203125,-1.0208969116210938,-0.8253917694091797,-0.0404112786054611
1761235858872188200,1.370188232421875,-1.0760793685913086,-0.4151039123535156,0.1487550288438797
1761235858890226700,1.388226806640625,-0.8835415840148926,-0.106020450592041,0.2728727459907532
1761235858908265500,1.406265380859375,-0.4776201248168945,0.0946040153503418,0.3365626037120819
1761235858926299000,1.424298828125,-0.4709663391113281,0.2951846122741699,0.2613861560821533
1761235858944343000,1.442343017578125,-0.7699151039123535,0.5579967498779297,0.1189200282096862
1761235858962381000,1.460381103515625,-0.7927236557006836,0.857511043548584,0.0061528384685516
1761235858980420000,1.478420166015625,-0.4700899124145508,1.025432586669922,-0.0601037144660949
1761235858998458400,1.496458251953125,0.18272066116333,1.1061668395996094,-0.2592531740665436
1761235859016497200,1.5144970703125,0.69537353515625,1.0721487998962402,-0.5037566423416138
1761235859034535700,1.53253564453125,1.1159095764160156,0.9323687553405762,-0.8693791031837463
1761235859052574700,1.55057470703125,1.8001313209533691,0.6715431213378906,-0.9423065185546876
1761235859070612500,1.568612548828125,2.6128878593444824,0.6256771087646484,-1.0134209394454956
1761235859088651500,1.586651611328125,2.7976884841918945,0.6963343620300293,-0.8690696358680725
1761235859106690000,1.60468994140625,1.4451189041137695,0.5521450042724609,-0.4240307211875915
1761235859124729300,1.622729248046875,0.7537579536437988,0.9011712074279784,0.1280089020729065
1761235859142767400,1.640767333984375,1.7082600593566897,0.8210430145263672,0.8821751475334167
1761235859160806100,1.65880615234375,3.043822288513184,0.3620705604553222,1.0454363822937012
1761235859178844700,1.6768447265625,3.937731266021729,-0.0588655471801757,0.7550944685935974
1761235859196883700,1.6948837890625,3.7617554664611816,-0.5411090850830078,0.4271707236766815
1761235859214921700,1.712921630859375,2.966197967529297,-1.1234993934631348,0.2362905293703079
1761235859232943000,1.730943115234375,2.160447597503662,-1.6523661613464355,0.2366033494472503
1761235859251003000,1.7490029296875,1.934262752532959,-1.9142050743103027,0.4936302602291107
1761235859269037800,1.767037841796875,2.1270713806152344,-1.89000940322876,1.1431024074554443
1761235859287065600,1.785065673828125,1.8061132431030276,-1.864786148071289,1.8092379570007324
1761235859305097200,1.80309716796875,0.9297266006469728,-2.046564102172852,1.878345251083374
1761235859323153700,1.821153564453125,-0.065159797668457,-2.3872385025024414,1.3118849992752075
1761235859341192700,1.839192626953125,-1.0756721496582031,-2.4793028831481934,0.6535556316375732
1761235859359230700,1.857230712890625,-1.85719633102417,-2.414303064346313,0.2390405833721161
1761235859377269800,1.875269775390625,-2.134210586547852,-2.191603183746338,-0.0405990481376647
1761235859395303400,1.893303466796875,-1.992440223693848,-1.9298758506774905,-0.1860942840576172
1761235859413351700,1.9113515625,-1.8719191551208496,-1.675797939300537,-0.1038095355033874
1761235859431385300,1.92938525390625,-1.9451971054077148,-1.385523796081543,-0.0951074361801147
1761235859449419500,1.94741943359375,-1.810818672180176,-1.2490615844726562,-0.133122444152832
1761235859467447800,1.96544775390625,-1.588376522064209,-1.240368366241455,-0.213348388671875
1761235859485501700,1.983501708984375,-1.4906659126281738,-1.2018256187438965,-0.2958971261978149
1761235859503532500,2.001532470703125,-1.4378418922424316,-1.1533818244934082,-0.3722686767578125
1761235859521578000,2.019577880859375,-1.2295455932617188,-1.0617613792419434,-0.3342254161834717
1761235859539618000,2.0376181640625,-0.8792195320129395,-0.9112787246704102,-0.2407034635543823
1761235859557655800,2.05565576171875,-0.9376378059387208,-0.6463050842285156,-0.1243780851364135
1761235859575693800,2.07369384765625,-0.8307738304138184,-0.3150258064270019,-0.0128747224807739
1761235859593732900,2.09173291015625,-0.4170160293579101,-0.114417552947998,0.1391991376876831
1761235859611771400,2.109771484375,0.0085916519165039,0.0565605163574218,0.2247127890586853
1761235859629810700,2.127810791015625,0.2237849235534668,0.2053542137145996,0.2365056872367859
1761235859647848700,2.1458486328125,0.2343659400939941,0.5045738220214844,0.1291760802268982
1761235859665887200,2.16388720703125,-0.0735211372375488,0.8680911064147949,-0.0583529472351074
1761235859683926000,2.181926025390625,-0.0276322364807128,1.2447800636291504,-0.3951455354690552
1761235859701965000,2.199965087890625,0.3315644264221191,1.4595985412597656,-0.5523413419723511
1761235859720002800,2.2180029296875,1.0157880783081057,1.645235538482666,-0.5153899192810059
1761235859738041600,2.23604150390625,1.7670021057128906,1.626784324645996,-0.4986927509307861
1761235859756077300,2.254077392578125,2.1641955375671387,1.4789810180664062,-0.5518004894256592
1761235859774119200,2.272119140625,2.243597507476806,1.5599408149719238,-0.714858889579773
1761235859792157700,2.29015771484375,2.0894598960876465,1.721723556518555,-1.079029560089111
1761235859810196200,2.3081962890625,1.200638771057129,1.6438865661621094,-1.2903547286987305
1761235859828235000,2.326235107421875,0.3506932258605957,1.6111555099487305,-1.409011960029602
1761235859846273800,2.344273681640625,0.6201372146606445,1.731151103973389,-1.2284220457077026
1761235859864311800,2.362311767578125,1.3804125785827637,1.6702232360839844,-1.0773305892944336
1761235859882351000,2.38035107421875,1.8935227394104004,1.272153377532959,-0.9902890920639038
1761235859900388600,2.398388671875,1.7625408172607422,0.6972765922546387,-1.140193223953247
1761235859918429400,2.416429443359375,1.544682502746582,0.1324410438537597,-1.4288498163223269
1761235859936466200,2.434466064453125,1.7799067497253418,-0.398505687713623,-1.4580289125442505
1761235859954493200,2.4524931640625,2.177314281463623,-0.903456687927246,-1.272006630897522
1761235859972531700,2.47053173828125,2.1029052734375,-1.3084464073181152,-1.0177820920944214
1761235859990582800,2.488582763671875,1.6218671798706057,-1.6867046356201172,-0.7856824994087219
1761235860008620800,2.506620849609375,0.942026138305664,-2.1202778816223145,-0.6364834308624268
1761235860026659800,2.524659912109375,0.4839100837707519,-2.475841522216797,-0.7679301500320435
1761235860044698000,2.542697998046875,0.2916040420532226,-2.9821314811706543,-1.0278115272521973
1761235860062737700,2.560737548828125,-0.3486666679382324,-3.315703868865967,-1.2568883895874023
1761235860080774700,2.578774658203125,-1.4382295608520508,-3.0594403743743896,-1.2809648513793943
1761235860098814000,2.59681396484375,-2.460254192352295,-2.66409683227539,-1.077094554901123
1761235860116841700,2.614841796875,-2.685983180999756,-2.241626262664795,-0.7281109094619751
1761235860134881500,2.632881591796875,-2.101961135864258,-2.005703449249268,-0.225945234298706
1761235860152929500,2.650929443359375,-1.685746669769287,-1.969599723815918,-0.0002501010894775
1761235860170956000,2.6689560546875,-1.6405258178710938,-1.8830060958862305,0.0327011346817016
1761235860189007000,2.687007080078125,-1.871408462524414,-1.782628059387207,-0.0424601435661315
1761235860207046000,2.7050458984375,-2.001891613006592,-1.642125129699707,-0.1504129767417907
1761235860225084000,2.723083984375,-2.201442241668701,-1.495180606842041,-0.3483296632766723
1761235860243122700,2.741122802734375,-2.013908863067627,-1.2451152801513672,-0.5676395297050476
1761235860261161700,2.75916162109375,-1.420494556427002,-1.0109400749206543,-0.6167647838592529
1761235860279200300,2.7772001953125,-0.9481267929077148,-0.7947406768798828,-0.4988408088684082
1761235860297238300,2.79523828125,-0.4329099655151367,-0.4441976547241211,-0.1484333276748657
1761235860315277000,2.813277099609375,0.2557659149169922,-0.0475807189941406,0.2093893885612487
1761235860333315800,2.83131591796875,0.5969276428222656,0.2130279541015625,0.3140922486782074
1761235860351355000,2.84935498046875,0.5086655616760254,0.3462891578674316,0.1276699900627136
1761235860369392600,2.867392578125,0.5835714340209961,0.4814534187316894,-0.0870302319526672
1761235860387431700,2.885431640625,1.2098064422607422,0.6219053268432617,-0.188892126083374
1761235860405470000,2.903469970703125,1.9887490272521973,0.7738027572631836,-0.1485111117362976
1761235860423509000,2.921509033203125,2.6077146530151367,0.7649931907653809,0.2449432015419006
1761235860441547000,2.939547119140625,3.083703994750977,0.773681640625,0.3119373321533203
1761235860459586000,2.9575859375,2.7608180046081543,0.7818055152893066,-0.1500675082206726
1761235860477624800,2.975624755859375,0.888796329498291,0.570157527923584,-0.4189809560775757
1761235860495663600,2.99366357421875,-0.4119253158569336,0.928297996520996,-0.1726434826850891
1761235860513701400,3.011701416015625,0.5947847366333008,1.094552993774414,0.6288272142410278
1761235860531739400,3.029739501953125,2.684476375579834,0.7570748329162598,1.056307315826416
1761235860549780200,3.0477802734375,4.437566757202148,0.2450399398803711,1.180811882019043
1761235860567818800,3.06581884765625,4.597743034362793,-0.4478459358215332,0.9298240542411804
1761235860585855000,3.08385498046875,3.786431789398194,-1.1948609352111816,0.627241849899292
1761235860603894500,3.10189453125,3.760003566741944,-1.6766204833984375,0.9048513174057008
1761235860621933000,3.11993310546875,3.82003402709961,-1.8371005058288572,1.2674065828323364
1761235860639971800,3.137971923828125,2.8165125846862797,-1.8077268600463867,1.355243444442749
1761235860658010400,3.15601025390625,0.937131404876709,-1.641761302947998,1.3177059888839722
1761235860676049200,3.174049072265625,-0.5684018135070801,-1.4951801300048828,1.2516545057296753
1761235860694087700,3.192087646484375,-1.4399962425231934,-1.5078516006469729,0.976564884185791
1761235860712125400,3.21012548828125,-1.668877124786377,-1.672319412231445,0.6303786039352417
1761235860730163000,3.228162841796875,-1.642961502075195,-1.908663272857666,0.284803569316864
1761235860748206600,3.24620654296875,-1.5115509033203125,-1.9382143020629885,0.0557665228843688
1761235860766237700,3.26423779296875,-1.406620979309082,-1.7722835540771484,0.0499030947685241
1761235860784280800,3.28228076171875,-1.6732969284057615,-1.485311508178711,0.0433822274208068
1761235860802322700,3.30032275390625,-2.3493242263793945,-1.1922173500061035,-0.0677378177642822
1761235860820343600,3.318343505859375,-2.9229540824890137,-0.9456710815429688,-0.1612541675567627
1761235860838384400,3.33638427734375,-2.932370901107788,-0.791783332824707,-0.1524811387062072
1761235860856438800,3.354438720703125,-2.2046351432800293,-0.706047534942627,-0.0447371006011962
1761235860874473500,3.372473388671875,-1.32330322265625,-0.7115030288696289,0.0163989067077636
1761235860892512000,3.390511962890625,-0.8376955986022949,-0.5385169982910156,0.0435242652893066
1761235860910550500,3.408550537109375,-0.9374833106994628,-0.2615246772766113,0.1663203835487365
1761235860928589800,3.42658984375,-0.7511792182922363,-0.015578269958496,0.2090216875076294
1761235860946627800,3.4446279296875,-0.6298413276672363,0.0974454879760742,0.2948088645935058
1761235860964666600,3.46266650390625,-0.8485126495361328,0.4257187843322754,0.2614889144897461
1761235860982705400,3.480705322265625,-0.5470643043518066,1.1349177360534668,0.4345784187316894
1761235861000744200,3.498744140625,-0.0936756134033203,1.5451502799987793,0.4811331629753113
1761235861018782200,3.5167822265625,0.149846076965332,1.6955599784851074,0.423890471458435
1761235861036821200,3.5348212890625,0.4517436027526855,1.5087604522705078,0.1557372808456421
1761235861054859500,3.552859619140625,0.8655209541320801,1.2222442626953125,-0.169979453086853
1761235861072898300,3.570898193359375,1.7521262168884275,1.1226181983947754,-0.4819716215133667
1761235861090936300,3.588936279296875,3.128640651702881,1.178946018218994,-0.9811943769454956
1761235861108975000,3.60697509765625,3.068448066711426,1.3936491012573242,-1.5502609014511108
1761235861127014000,3.625013916015625,1.6338791847229004,1.5092573165893557,-1.5485641956329346
1761235861145053000,3.643052978515625,1.5985431671142578,1.5632286071777344,-0.9178889989852904
1761235861163090700,3.661090576171875,3.471980571746826,0.8518805503845215,-0.5615329742431641
1761235861181130000,3.6791298828125,4.996699333190918,-0.2340855598449707,-0.98423433303833
1761235861199168300,3.697168212890625,4.332173824310303,-0.874943733215332,-1.704300880432129
1761235861217207000,3.71520703125,2.798520088195801,-1.0527729988098145,-1.972805142402649
1761235861235244300,3.733244384765625,2.006022453308105,-1.1249103546142578,-1.8579801321029663
1761235861253284900,3.751284912109375,1.932567119598389,-1.2169466018676758,-1.248798131942749
1761235861271322400,3.769322265625,2.216555595397949,-1.3859148025512695,-0.64552903175354
1761235861289361200,3.787361083984375,2.129680156707764,-1.672431468963623,-0.4060348272323608
1761235861307399200,3.805399169921875,1.850525379180908,-2.035995483398437,-0.304625391960144
1761235861325438500,3.8234384765625,0.979971408843994,-2.4410171508789062,-0.4229187965393066
1761235861343477000,3.84147705078125,-0.2007951736450195,-2.6789803504943848,-0.7335971593856812
1761235861361516000,3.85951611328125,-1.4830632209777832,-2.755156755447388,-0.7644222974777222
1761235861379554000,3.877553955078125,-2.327934741973877,-2.6429452896118164,-0.8841793537139893
1761235861397592800,3.8955927734375,-2.526655673980713,-2.5068931579589844,-0.7687251567840576
1761235861415631400,3.91363134765625,-2.4175171852111816,-2.469538688659668,-0.4909654855728149
1761235861433670100,3.931670166015625,-2.4516100883483887,-2.518266201019287,-0.3479137420654297
1761235861451695000,3.949695068359375,-2.4969210624694824,-2.450028896331787,-0.1562811136245727
1761235861469747700,3.967747802734375,-2.4743332862854004,-2.198955535888672,0.086248755455017
1761235861487785700,3.98578564453125,-2.381197929382324,-1.9167304039001465,0.2052141427993774
1761235861505824300,4.00382421875,-2.1380844116210938,-1.6970782279968262,0.1429848670959472
1761235861523862500,4.021862548828125,-1.6963396072387695,-1.5177841186523438,0.0329000949859619
1761235861541901300,4.0399013671875,-1.0461058616638184,-1.2448630332946775,-0.0741437673568725
1761235861559939800,4.05793994140625,-0.5063786506652832,-0.9149737358093262,-0.0464037060737609
1761235861577978600,4.075978515625,-0.2753186225891113,-0.440859317779541,-0.1056603789329528
1761235861596017000,4.094016845703125,0.0811300277709961,0.1508097648620605,-0.194264531135559
1761235861614056000,4.112055908203125,0.6636524200439453,0.5716280937194824,-0.0938049554824829
1761235861632094500,4.130094482421875,1.0319418907165527,0.9237632751464844,0.0334371328353881
1761235861650132700,4.1481328125,1.224958896636963,1.128340721130371,-0.0962412357330322
1761235861668171500,4.166171630859375,1.383385181427002,1.3285112380981443,-0.051773190498352
1761235861686206700,4.184206787109375,1.5125188827514648,1.538578987121582,0.2151155769824981
1761235861704248800,4.202248779296875,1.4797663688659668,1.543282985687256,0.1196029186248779
1761235861722287400,4.220287353515625,1.7934508323669434,1.4437336921691897,-0.1263273358345031
1761235861740325000,4.2383251953125,2.6183090209960938,1.3090949058532717,-0.3514484763145447
1761235861758364200,4.2563642578125,3.10123872756958,1.378878116607666,-0.6094750761985779
1761235861776402700,4.274402587890625,1.9772520065307615,1.0763235092163086,0.018350601196289
1761235861794441700,4.292441650390625,0.8980226516723633,1.1074461936950684,0.6990001201629639
1761235861812479200,4.310479248046875,1.5710649490356443,0.9462761878967284,1.468635320663452
1761235861830518800,4.328518798828125,2.7172422409057617,0.1529841423034668,1.7200663089752195
1761235861848557300,4.346557373046875,3.225027084350586,-0.6524510383605957,1.2839727401733398
1761235861866596400,4.364596435546875,2.78397274017334,-1.0855798721313477,0.8362983465194702
1761235861884631300,4.38263134765625,1.891956806182861,-1.4453210830688477,0.8446261882781982
1761235861902676700,4.4006767578125,1.2230372428894043,-1.992300510406494,0.9208420515060424
1761235861920710700,4.418710693359375,1.3850317001342771,-2.2761240005493164,1.2264420986175537
1761235861938750200,4.436750244140625,1.4409465789794922,-2.41221284866333,1.3695003986358645
1761235861956788200,4.454788330078125,0.8931112289428711,-2.2713418006896973,1.2750451564788818
1761235861974815200,4.472815185546875,0.0174756050109863,-2.057166576385498,1.3846737146377563
1761235861992865800,4.49086572265625,-0.6143732070922852,-1.8906927108764648,1.281023025512695
1761235862010904300,4.508904296875,-0.6524271965026855,-1.9352035522460935,0.7758855819702148
1761235862028943000,4.526943115234375,-0.5660300254821777,-1.9645795822143557,0.3247348070144653
1761235862046980600,4.544980712890625,-0.7568488121032715,-1.878204345703125,0.107948899269104
1761235862065018400,4.563018310546875,-1.4401555061340332,-1.640587329864502,0.0368850231170654
1761235862083062300,4.581062255859375,-1.946139335632324,-1.3305883407592771,0.0699901580810546
1761235862101097200,4.59909716796875,-1.871586322784424,-1.0571794509887695,0.3123455345630646
1761235862146189300,4.644189208984375,-2.1351194381713867,-0.6560626029968262,0.5420815944671631
1761235862164232400,4.662232421875,-2.1084680557250977,-0.7162075042724609,0.4359144270420074
1761235862182269700,4.680269775390625,-2.017970085144043,-0.7188963890075684,0.3745316863059997
1761235862200309500,4.6983095703125,-1.751084804534912,-0.6917848587036133,0.3040271997451782
1761235862218347000,4.716346923828125,-1.6368680000305176,-0.6534934043884277,0.2549843788146972
1761235862236383000,4.734383056640625,-1.3357796669006348,-0.5766468048095703,0.1542649269104004
1761235862254427400,4.752427490234375,-0.8826689720153809,-0.3981289863586426,0.22463059425354
1761235862272463400,4.77046337890625,-0.5186166763305664,-0.0756902694702148,0.3904707431793213
1761235862290497000,4.7884970703125,-0.2630538940429687,0.2209277153015136,0.3546010255813598
1761235862308539400,4.806539306640625,0.0184922218322753,0.2819371223449707,0.157347559928894
1761235862326578400,4.824578369140625,0.1987075805664062,0.1463956832885742,-0.1702082157135009
1761235862344618200,4.8426181640625,0.6812267303466797,0.2593164443969726,-0.3530309796333313
1761235862362655500,4.860655517578125,1.2265877723693848,0.545447826385498,-0.0578091740608215
1761235862380695300,4.8786953125,1.6550869941711426,0.7100772857666016,0.0195891261100769
1761235862398729700,4.896729736328125,2.093496799468994,0.9430055618286132,-0.3634800910949707
1761235862416775200,4.914775146484375,2.0745997428894043,1.380751132965088,-0.8468977808952332
1761235862434809600,4.9328095703125,1.337310791015625,1.632878303527832,-0.8017093539237976
1761235862452837400,4.95083740234375,0.7270445823669434,1.8703083992004397,-0.6128982901573181
1761235862470883300,4.96888330078125,1.283337116241455,1.9223103523254397,-0.4939303994178772
1761235862488926700,4.9869267578125,2.642612934112549,1.3246121406555176,-0.5635693073272705
1761235862506952200,5.0049521484375,3.886384963989258,0.5087709426879883,-0.7786134481430054
1761235862525003500,5.02300341796875,4.877408981323242,-0.198617935180664,-0.8571349382400513
1761235862543041800,5.041041748046875,4.934769630432129,-0.7787904739379883,-0.9994513988494872
1761235862561080600,5.05908056640625,3.995348453521729,-1.21400785446167,-1.098046898841858
1761235862579118000,5.0771181640625,2.612182140350342,-1.4995908737182615,-1.076512098312378
1761235862597157600,5.09515771484375,1.7740411758422852,-1.7036490440368652,-1.056576371192932
1761235862615195600,5.113195556640625,1.1845307350158691,-1.952674388885498,-0.9504029750823976
1761235862633232600,5.131232666015625,0.4448275566101074,-2.196707248687744,-0.844188928604126
1761235862651272400,5.1492724609375,-0.4283323287963867,-2.3503074645996094,-0.8005920648574829
1761235862669312300,5.167312255859375,-1.457705020904541,-2.4941534996032715,-0.8047991991043091
1761235862687349500,5.185349609375,-2.520971775054932,-2.623373031616211,-0.905893623828888
1761235862705389600,5.2033896484375,-3.194526672363281,-2.741328716278076,-1.1196577548980713
1761235862723426600,5.221426513671875,-3.344666004180908,-2.6600046157836914,-1.1187137365341189
1761235862741466400,5.23946630859375,-3.0766963958740234,-2.255777359008789,-0.6465811729431152
1761235862759503600,5.257503662109375,-2.5480880737304688,-1.8083105087280276,-0.2019576430320739
1761235862777543400,5.27554345703125,-1.7003426551818848,-1.6904635429382324,-0.0662143230438232
1761235862795581200,5.293581298828125,-1.2331700325012207,-1.8200955390930176,-0.2592142224311828
1761235862813621000,5.31162109375,-1.2442059516906738,-1.7326326370239258,-0.3234280943870544
1761235862831657700,5.32965771484375,-1.2712440490722656,-1.54744291305542,-0.2808932662010193
1761235862849698300,5.3476982421875,-1.076159954071045,-1.3170104026794434,-0.3774710893630981
1761235862867735300,5.3657353515625,-0.9304523468017578,-0.9837727546691896,-0.3481837511062622
1761235862885775000,5.383775146484375,-0.7729458808898926,-0.577937126159668,-0.3804352283477783
1761235862903811800,5.401811767578125,-0.6229619979858398,-0.2142791748046875,-0.3424937129020691
1761235862921853000,5.41985302734375,-0.4789671897888183,0.0847296714782714,-0.3985899090766907
1761235862939889400,5.437889404296875,-0.3624696731567383,0.2952847480773926,-0.2977676391601562
1761235862957919000,5.4559189453125,-0.3325424194335937,0.2828378677368164,-0.5148156881332397
1761235862975954700,5.47395458984375,-0.3675494194030761,0.1649127006530761,-0.8369871377944946
1761235862994006500,5.492006591796875,0.1956567764282226,0.2827720642089844,-0.8799179792404175
1761235863012044300,5.510044189453125,1.1319589614868164,0.374000072479248,-0.53423672914505
1761235863030083800,5.528083740234375,1.982670783996582,0.4950675964355469,-0.0684340000152587
1761235863048121000,5.54612109375,2.577232360839844,0.5111532211303711,0.3186921775341034
1761235863066154500,5.564154541015625,2.9482526779174805,0.4365382194519043,0.2854899764060974
1761235863084201200,5.582201171875,2.82804012298584,0.6621012687683105,-0.1631878018379211
1761235863102238000,5.600238037109375,2.008872032165528,0.7399792671203613,-0.0192175507545471
1761235863120263200,5.61826318359375,1.706538200378418,1.0865283012390137,0.481083869934082
1761235863138305500,5.636305419921875,2.336149215698242,1.5769658088684082,1.097404718399048
1761235863156347400,5.654347412109375,3.4412078857421875,1.5866007804870603,1.4935439825057983
1761235863174380300,5.67238037109375,4.221136093139648,1.505035400390625,1.4620404243469238
1761235863192429600,5.6904296875,4.075183868408203,1.2735166549682615,0.9565168619155884
1761235863210469000,5.70846923828125,3.376694679260254,0.4964857101440429,0.3097986280918121
1761235863228503300,5.72650341796875,2.923437118530273,-0.245363712310791,-0.0190792977809906
1761235863246549000,5.744549072265625,3.093219757080078,-0.6722164154052734,0.0951046347618103
1761235863264584000,5.762583984375,3.116886138916016,-0.9740390777587892,0.6248055100440979
1761235863282623200,5.780623291015625,2.3028125762939453,-1.1141939163208008,1.130232810974121
1761235863300661200,5.7986611328125,0.9139041900634766,-1.0967445373535156,1.459724187850952
1761235863318700500,5.816700439453125,-0.2734937667846679,-1.043513298034668,1.5055148601531982
1761235863336738000,5.834738037109375,-0.915048599243164,-1.19382905960083,1.2612009048461914
1761235863354777600,5.852777587890625,-1.4133872985839844,-1.5738377571105957,0.4787983894348144
1761235863372815000,5.870815185546875,-1.673771858215332,-1.8993115425109863,-0.1664833426475525
1761235863390854700,5.888854736328125,-1.6229619979858398,-1.9983150959014893,-0.2896890044212341
1761235863408892200,5.90689208984375,-1.4950847625732422,-1.9911980628967283,0.0335649251937866
1761235863426931700,5.924931640625,-1.6796464920043943,-1.7882633209228516,0.4678761959075928
1761235863444969000,5.942968994140625,-2.131876945495605,-1.5580854415893557,0.941653609275818
1761235863463009300,5.96100927734375,-2.5514111518859863,-1.5989418029785156,1.1053835153579712
1761235863481046300,5.97904638671875,-2.719019889831543,-1.8503623008728027,1.0317164659500122
1761235863499086300,5.99708642578125,-2.653394222259521,-2.161566734313965,0.8007903099060059
1761235863517123600,6.01512353515625,-2.4237027168273926,-2.2970986366271973,0.5582514405250549
1761235863535163400,6.033163330078125,-2.0851402282714844,-2.2735958099365234,0.5654484629631042
1761235863553200400,6.051200439453125,-1.880319118499756,-1.991865158081055,0.7229815125465393
1761235863571237400,6.0692373046875,-1.847111701965332,-1.6642427444458008,0.8055132627487183
1761235863589280500,6.087280517578125,-1.7513704299926758,-1.3580079078674316,0.7405408620834351
1761235863607317200,6.105317138671875,-1.531966209411621,-0.9951119422912598,0.5283183455467224
1761235863625354800,6.123354736328125,-0.9441447257995604,-0.7376933097839355,0.2786373496055603
1761235863643394600,6.14139453125,-0.4931659698486328,-0.5437436103820801,0.0180175304412841
1761235863661432300,6.159432373046875,-0.3860836029052734,-0.2540626525878906,-0.3876477479934692
1761235863679471600,6.1774716796875,-0.2734851837158203,0.1552000045776367,-0.6245013475418091
1761235863697509000,6.195509033203125,-0.1654500961303711,0.5720067024230957,-0.5614689588546753
1761235863715549000,6.213548828125,0.3892264366149902,1.2390117645263672,-0.5154726505279541
1761235863733586700,6.231586669921875,1.1169533729553225,1.9315104484558103,-0.5167834758758545
1761235863751624700,6.249624755859375,1.1393499374389648,2.312404155731201,-0.4068752527236938
1761235863769664300,6.267664306640625,0.9330892562866212,2.690833568572998,-0.1377918124198913
1761235863787702800,6.285702880859375,1.8807106018066408,3.1121139526367188,0.2032657265663147
1761235863805740500,6.303740478515625,3.731907367706299,2.709745407104492,-0.0469633340835571
1761235863823780600,6.321780517578125,5.343647480010986,1.7439236640930176,-0.7676273584365845
1761235863841817600,6.339817626953125,6.231201171875,0.7579922676086426,-1.5407779216766355
1761235863859857400,6.357857421875,5.951693058013916,0.0768022537231445,-2.0889997482299805
1761235863877895000,6.37589501953125,4.435373306274414,-0.1450872421264648,-2.117709159851074
1761235863895934200,6.393934326171875,2.467806339263916,-0.1374893188476562,-1.892589092254639
1761235863913971700,6.4119716796875,1.2048864364624023,-0.2159795761108398,-1.5911049842834473
1761235863932011300,6.43001123046875,0.3557877540588379,-0.4548730850219726,-1.2047204971313477
1761235863950048800,6.448048828125,0.1397819519042968,-0.8146600723266602,-1.255719780921936
1761235863968088600,6.466088623046875,0.4864106178283691,-1.315845012664795,-1.3207272291183472
1761235863986122500,6.48412255859375,0.5803709030151367,-1.7177019119262695,-1.365970253944397
1761235864004166100,6.502166259765625,-0.2197794914245605,-1.819453239440918,-1.3143600225448608
1761235864022203100,6.520203125,-1.2874536514282229,-1.7544302940368652,-0.9851720929145812
1761235864040240000,6.538240234375,-2.045693874359131,-1.6645593643188477,-0.6034862995147705
1761235864058283000,6.556282958984375,-2.340717315673828,-1.690107345581055,-0.4163213968276977
1761235864076319700,6.57431982421875,-1.911343097686768,-1.8764910697937007,-0.4908145070075989
1761235864094357200,6.592357177734375,-1.506516456604004,-2.1329379081726074,-0.4286438822746277
1761235864112396800,6.610396728515625,-1.6627016067504885,-2.228823661804199,-0.3286097347736358
1761235864130434300,6.628434326171875,-1.8021564483642576,-2.095761299133301,-0.1083610355854034
1761235864148472000,6.64647216796875,-1.6357097625732422,-1.9457149505615237,0.272202581167221
1761235864166513700,6.664513671875,-1.700488567352295,-1.8058538436889648,0.3593459129333496
1761235864184551200,6.68255126953125,-1.8243522644042969,-1.6585206985473633,0.2920025885105133
1761235864202588700,6.700588623046875,-1.5633316040039062,-1.472236156463623,0.2250406444072723
1761235864220628200,6.718628173828125,-1.017500400543213,-1.3691949844360352,-0.0212058871984481
1761235864238661000,6.7366611328125,-0.6255903244018555,-1.2803964614868164,-0.304446130990982
1761235864256710000,6.7547099609375,-0.3094043731689453,-0.944538116455078,-0.5380098223686218
1761235864274742800,6.77274267578125,0.0466127395629882,-0.5197048187255859,-0.5140095353126526
1761235864292782300,6.7907822265625,0.1775388717651367,-0.073249340057373,-0.5236711502075195
1761235864310804200,6.80880419921875,0.1695122718811035,0.1776990890502929,-0.4112560749053955
1761235864328859600,6.826859619140625,0.2428431510925293,0.39947509765625,-0.2600582242012024
1761235864346895000,6.84489501953125,0.6959738731384277,0.6713666915893555,-0.2161238342523574
1761235864364938800,6.862938720703125,1.323690414428711,0.9443693161010742,-0.2386956214904785
1761235864382974200,6.88097412109375,2.1734585762023926,1.2596006393432615,-0.3806597590446472
1761235864401014000,6.899013916015625,2.934544563293457,1.4993853569030762,-0.539440929889679
1761235864419051300,6.91705126953125,2.9737801551818848,1.832235336303711,-0.6340909004211426
1761235864437090800,6.9350908203125,2.174414157867432,1.819122314453125,-0.1095931902527809
1761235864455117000,6.953116943359375,0.6690754890441895,1.0649747848510742,0.9852304458618164
1761235864473156000,6.971156005859375,0.4756722450256347,0.7155776023864746,1.2405649423599243
1761235864491205400,6.989205322265625,1.9028301239013672,-0.0036001205444335,1.311793088912964
1761235864509233200,7.007233154296875,3.4420337677001958,-0.8394098281860352,1.072354078292847
