time,seconds_elapsed,z,y,x
1761235829559186400,0.0081865234375,0.0374154970049858,-0.0061086523346602,-0.157603234052658
1761235829577212700,0.026212646484375,0.0529925599694252,-0.0496328026056289,-0.1765400618314743
1761235829595251200,0.044251220703125,-0.0079412478953599,0.0030543261673301,-0.1379028260707855
1761235829613302800,0.062302734375,-0.0554360225796699,0.0647517144680023,-0.0545197241008281
1761235829631345700,0.080345703125,-0.1007927656173706,0.0595593601465225,-0.0433714315295219
1761235829649368000,0.0983681640625,-0.1305724531412124,0.0157297793775796,-0.104763388633728
1761235829660654300,0.109654296875,-0.1762346178293228,-0.0102319931611418,-0.1452332139015197
1761235829678695000,0.12769482421875,-0.1925752758979797,0.0565050356090068,-0.1514945775270462
1761235829696733700,0.145733642578125,-0.1832595765590667,0.1212567538022995,-0.1346957832574844
1761235829714772200,0.163772216796875,-0.167377084493637,0.1395827084779739,-0.1298088580369949
1761235829732811000,0.18181103515625,-0.1252273768186569,0.1279762685298919,-0.0965167060494422
1761235829750835200,0.199835205078125,-0.0891863256692886,0.085062988102436,-0.0282525178045034
1761235829768888800,0.217888916015625,-0.081092357635498,0.0183259565383195,0.0041233403608202
1761235829786925800,0.23592578125,-0.0897971913218498,-0.0383317954838275,-0.0343611687421798
1761235829804966700,0.253966552734375,-0.1101084575057029,-0.0397062413394451,-0.1232420653104782
1761235829823006000,0.272005859375,-0.1495092660188675,0.0041233403608202,-0.1847867369651794
1761235829841044500,0.29004443359375,-0.1481348276138305,0.0578794814646244,-0.2365575730800628
1761235829859083300,0.308083251953125,-0.1266018152236938,0.0401643887162208,-0.2764165103435516
1761235829877122800,0.326122802734375,-0.0818559452891349,-0.0424551330506801,-0.2927571833133697
1761235829895161600,0.34416162109375,-0.0219911485910415,-0.1217148974537849,-0.265573650598526
1761235829913200400,0.362200439453125,0.0262672062963247,-0.0745255574584007,-0.2249511331319809
1761235829931239200,0.3802392578125,0.0416915528476238,-0.0184786729514598,-0.1918116807937622
1761235829949266200,0.39826611328125,0.0311541277915239,0.0317649915814399,-0.166460782289505
1761235829967316700,0.416316650390625,-0.0067195175215601,0.0410806871950626,-0.1441642045974731
1761235829985356000,0.43435595703125,-0.0387899428606033,0.079259768128395,-0.1006400510668754
1761235830003394600,0.45239453125,-0.0366519130766391,0.1177442744374275,-0.0589484944939613
1761235830021433900,0.470433837890625,-0.0174096599221229,0.0997237488627433,-0.034972034394741
1761235830039472000,0.48847216796875,-0.0137444678694009,0.0639881342649459,-0.00167987938039
1761235830057512000,0.506511962890625,0.0042760567739605,0.0849102661013603,0.0627664029598236
1761235830075550700,0.52455078125,0.0293215326964855,0.0777326002717018,0.0794124826788902
1761235830093589800,0.54258984375,0.0511599630117416,0.0517708286643028,0.0280998013913631
1761235830111628300,0.560628173828125,0.0855211317539215,0.0606283769011497,-0.00137444678694
1761235830129667300,0.578667236328125,0.1137736514210701,0.0975857228040695,0.0108428578823804
1761235830147706400,0.596706298828125,0.1356120854616165,0.1072068512439727,0.0444404482841491
1761235830165746000,0.614745849609375,0.1536326110363006,0.0766635909676551,0.1153008118271827
1761235830183782000,0.632781982421875,0.1464549452066421,0.0158824957907199,0.2180788964033126
1761235830201824500,0.650824462890625,0.1398881375789642,0.0100792767480015,0.2955060601234436
1761235830219861800,0.66886181640625,0.128434419631958,0.0290160998702049,0.3228422701358795
1761235830237900500,0.686900634765625,0.1368338167667389,0.042302418500185,0.3075706362724304
1761235830255929600,0.7049296875,0.1757764816284179,0.0226020142436027,0.2945897579193115
1761235830273974000,0.72297412109375,0.2180788964033126,0.0001527163112768,0.3135266005992889
1761235830292017700,0.741017578125,0.2490803003311157,-0.0222965814173221,0.3681990206241607
1761235830310056400,0.759056396484375,0.2895501255989074,0.0499382354319095,0.4587597846984863
1761235830328095200,0.77709521484375,0.3266601860523224,0.2706133127212524,0.5271766781806946
1761235830346134000,0.795134033203125,0.309708684682846,0.3636175394058227,0.3683517575263977
1761235830364173600,0.813173583984375,0.2391537427902221,0.2255619913339615,-0.0476474873721599
1761235830382212400,0.83121240234375,0.0369573459029197,-0.1414152979850769,-0.5474879741668701
1761235830400251000,0.8492509765625,-0.2472477108240127,-0.3813326358795166,-0.8568912148475647
1761235830418289700,0.86728955078125,-0.3833179473876953,-0.3116939961910248,-0.7812966704368591
1761235830436329000,0.885328857421875,-0.3539963960647583,-0.1211040318012237,-0.3633120954036712
1761235830454370300,0.903370361328125,-0.2008219510316848,0.0345138870179653,0.2015855312347412
1761235830472406800,0.92140673828125,-0.0456621758639812,0.2142609804868698,0.551916778087616
1761235830490445600,0.939445556640625,0.0789543315768241,0.2603813111782074,0.5363397002220154
1761235830508484400,0.957484375,0.1502728462219238,0.0155770638957619,0.4280638098716736
1761235830526523100,0.975523193359375,0.1417207419872284,-0.2538145184516907,0.512210488319397
1761235830544562400,0.9935625,0.0809396430850029,-0.3158173263072967,0.6475171446800232
1761235830562601500,1.0116015625,0.0177150927484035,-0.2467895597219467,0.5114469528198242
1761235830580640300,1.02964013671875,-0.0685696229338646,-0.1273654103279113,0.0740674138069152
1761235830598679000,1.047678955078125,-0.1550070494413375,-0.0123700210824608,-0.3497203588485718
1761235830623393300,1.072393310546875,-0.2368630021810531,0.0010690141934901,-0.8445212244987488
1761235830641521200,1.090521240234375,-0.1994474977254867,-0.0948368310928344,-0.9239336848258972
1761235830659559000,1.108558837890625,-0.105221539735794,-0.2197587788105011,-0.7379252314567566
1761235830677599500,1.126599609375,0.0030543261673301,-0.2587014436721802,-0.4167627990245819
1761235830695637500,1.144637451171875,0.0746782794594764,-0.1189660057425499,-0.1811215430498123
1761235830713676800,1.1626767578125,0.1090394482016563,0.0665843114256858,-0.1684460937976837
1761235830731713800,1.1807138671875,0.1108720451593399,0.1652390509843826,-0.3081815242767334
1761235830749756000,1.198755859375,0.0862847194075584,0.1941024363040924,-0.4031710624694824
1761235830767793200,1.216793212890625,0.0710130855441093,0.0794124826788902,-0.395535260438919
1761235830785829000,1.2348291015625,0.0804814994335174,-0.1348485052585601,-0.2866485118865967
1761235830803873800,1.252873779296875,0.111482910811901,-0.3112358450889587,-0.1547016203403473
1761235830821910300,1.27091015625,0.1131627857685089,-0.3959933817386627,-0.0945313945412635
1761235830839953700,1.28895361328125,0.0685696229338646,-0.3633120954036712,-0.1766927689313888
1761235830857976600,1.3069765625,0.0061086523346602,-0.3882048726081848,-0.3346014320850372
1761235830876026400,1.3250263671875,-0.0711658000946044,-0.3546072840690613,-0.3914119005203247
1761235830894066400,1.34306640625,-0.1537853181362152,-0.30925053358078,-0.361174076795578
1761235830912104400,1.3611044921875,-0.2083050459623336,-0.270766019821167,-0.2869539558887481
1761235830930143500,1.3791435546875,-0.2510656118392944,-0.1966986060142517,-0.1953241676092147
1761235830948181800,1.397181640625,-0.2412917762994766,-0.0705549344420433,-0.0963639914989471
1761235830966218500,1.415218505859375,-0.2258674204349517,0.0615446716547012,-0.0629191175103187
1761235830984260000,1.433260009765625,-0.2093740701675415,0.1084285825490951,-0.0980438739061355
1761235831002299400,1.45129931640625,-0.1945605874061584,0.0658207312226295,-0.2003637999296188
1761235831020333800,1.469333740234375,-0.2232712507247924,-0.0198531206697225,-0.3011565804481506
1761235831038377500,1.48737744140625,-0.3049744665622711,-0.0910189226269722,-0.3391829133033752
1761235831056415700,1.505415771484375,-0.4129449129104614,-0.289244681596756,-0.33292156457901
1761235831074455000,1.523455078125,-0.4886921942234039,-0.6688974499702454,-0.2932153046131134
1761235831092492800,1.541492919921875,-0.4421137273311615,-1.007622241973877,-0.1429424732923507
1761235831110532900,1.559532958984375,-0.3060434758663177,-1.0752755403518677,0.1145372316241264
1761235831128571000,1.57757080078125,-0.0529925599694252,-0.8788823485374451,0.395535260438919
1761235831146610700,1.595610595703125,0.266031801700592,-0.4831944108009338,0.5650503635406494
1761235831164646000,1.61364599609375,0.4134030640125274,-0.2802344262599945,0.5048801302909851
1761235831182691800,1.63169189453125,0.3582724630832672,-0.3863722681999206,0.2968805134296417
1761235831200726500,1.6497265625,0.2130392491817474,-0.6675229668617249,0.0893390402197837
1761235831218766300,1.667766357421875,0.0339030213654041,-0.7594582438468933,0.0154243474826216
1761235831236804400,1.685804443359375,-0.0879645943641662,-0.5334380865097046,0.0925460830330848
1761235831254844700,1.7038447265625,-0.0728456825017929,-0.0902553424239158,0.2663372457027435
1761235831272882200,1.721882080078125,-0.0025961773935705,0.3984368443489074,0.4126394689083099
1761235831290921500,1.73992138671875,0.0786489024758338,0.7289149761199951,0.4667010605335235
1761235831308959500,1.75795947265625,0.1983784884214401,0.8103127479553223,0.4723515510559082
1761235831326999800,1.775999755859375,0.2982549667358398,0.7160868048667908,0.4859432876110077
1761235831345038300,1.794038330078125,0.3692680299282074,0.4938845634460449,0.5668829679489136
1761235831363077400,1.812077392578125,0.3828597962856293,0.244804248213768,0.6863071322441101
1761235831381115600,1.83011572265625,0.3524692356586456,0.0992656052112579,0.7493789196014404
1761235831399155500,1.848155517578125,0.251676470041275,0.0334448739886283,0.6278167366981506
1761235831417193500,1.866193359375,0.0502436682581901,-0.0997237488627433,0.2771801054477691
1761235831435233000,1.88423291015625,-0.223882108926773,-0.3199406862258911,-0.159435823559761
1761235831453271000,1.90227099609375,-0.4754058718681335,-0.3729332387447357,-0.4492913782596588
1761235831471310800,1.920310791015625,-0.5757405161857605,-0.1679879426956176,-0.5230533480644226
1761235831489348900,1.938348876953125,-0.5100724697113037,0.1400408595800399,-0.4454734921455383
1761235831507388400,1.956388427734375,-0.3704897761344909,0.2383901625871658,-0.3072652220726013
1761235831525426700,1.9744267578125,-0.2231185287237167,0.2162462919950485,-0.1505782902240753
1761235831543467000,1.992467041015625,-0.1128573566675186,0.1440114825963974,-0.0595593601465225
1761235831561504800,2.0105048828125,-0.0467311926186084,0.0678060427308082,-0.1128573566675186
1761235831579544300,2.02854443359375,-0.0342084541916847,0.0427605658769607,-0.2087631970643997
1761235831597582300,2.046582275390625,-0.0629191175103187,0.0817032232880592,-0.2557998299598694
1761235831615619300,2.064619384765625,-0.0905607715249061,0.1053742542862892,-0.2819143235683441
1761235831633663200,2.082663330078125,-0.1079704314470291,0.1305724531412124,-0.3553708493709564
1761235831651699000,2.100698974609375,-0.1224784851074218,0.0986547395586967,-0.4069889783859253
1761235831669738800,2.11873876953125,-0.1331686228513717,0.0693332031369209,-0.4086688458919525
1761235831687766000,2.13676611328125,-0.0963639914989471,0.0476474873721599,-0.3620903789997101
1761235831705816000,2.154816162109375,-0.0502436682581901,0.0549778714776039,-0.2831360399723053
1761235831723855600,2.172855712890625,-0.0032070425804704,0.0517708286643028,-0.197462186217308
1761235831741893600,2.1908935546875,0.0409279726445674,0.0723875313997268,-0.1197295859456062
1761235831759933400,2.208933349609375,0.0946841165423393,0.0876591652631759,-0.0459676086902618
1761235831777971500,2.226971435546875,0.1440114825963974,0.0768163055181503,-0.0047342055477201
1761235831796010800,2.2450107421875,0.1750128865242004,-0.0305432621389627,-0.00534507073462
1761235831814049300,2.26304931640625,0.197004035115242,-0.1728748679161071,-0.0102319931611418
1761235831832089300,2.28108935546875,0.1912008225917816,-0.2843577861785888,0.028557950630784
1761235831850126800,2.299126953125,0.1473712474107742,-0.3089450895786285,0.1843285858631134
1761235831868167000,2.3171669921875,0.1266018152236938,-0.1308778822422027,0.4401284158229828
1761235831886201300,2.335201416015625,0.1982257664203643,0.2136501222848892,0.6281222105026245
1761235831904244700,2.35324462890625,0.3202461004257202,0.4204280078411102,0.6010913848876953
1761235831922282500,2.371282470703125,0.4178318381309509,0.3410155177116394,0.3659082949161529
1761235831940322000,2.389322021484375,0.4017966091632843,-0.0726929605007171,-0.0351247526705265
1761235831958360000,2.407360107421875,0.2128865420818328,-0.6238461136817932,-0.4906775057315826
1761235831976400100,2.425400146484375,-0.0699440687894821,-0.8822421431541443,-0.7081455588340759
1761235832006252000,2.455251953125,-0.2985603809356689,-0.0594066455960273,0.0493273697793483
1761235832023752200,2.472752197265625,-0.1014036312699318,0.3656028509140014,0.4524984359741211
1761235832041791200,2.490791259765625,0.207236036658287,0.5363397002220154,0.6769914031028748
1761235832059830000,2.508830078125,0.4995350539684295,0.5161811113357544,0.6933320760726929
1761235832077869000,2.526869140625,0.694248378276825,0.4456261992454529,0.6663012504577637
1761235832095908000,2.544908203125,0.7312057018280029,0.427911102771759,0.6621779203414917
1761235832113943600,2.562943603515625,0.6351471543312073,0.4408919811248779,0.6281222105026245
1761235832131985700,2.580985595703125,0.4801400899887085,0.3659082949161529,0.5372560024261475
1761235832150024400,2.5990244140625,0.308792382478714,0.2357939779758453,0.4048509299755096
1761235832168063200,2.617063232421875,0.1298088580369949,0.056657750159502,0.2435825169086456
1761235832186102500,2.6351025390625,-0.0427605658769607,-0.1492038369178772,0.0494800843298435
1761235832204141000,2.65314111328125,-0.124921940267086,-0.2794708609580993,-0.1333213448524475
1761235832222179800,2.671179931640625,-0.1180497109889984,-0.3084869384765625,-0.2771801054477691
1761235832240219000,2.689218994140625,-0.0616973899304866,-0.0891863256692886,-0.3011565804481506
1761235832258257700,2.707257568359375,0.0403171069920063,0.2583959996700287,-0.2603813111782074
1761235832276297000,2.725296875,0.1424843221902847,0.5974262356758118,-0.2006692290306091
1761235832294335700,2.743335693359375,0.2127338200807571,0.7785477638244629,-0.1569923609495163
1761235832312374800,2.761374755859375,0.2638937830924988,0.7904596328735352,-0.1467603743076324
1761235832330412300,2.779412353515625,0.28557950258255,0.6710354685783386,-0.1536326110363006
1761235832348451800,2.797451904296875,0.2959642112255096,0.5007568001747131,-0.1666134893894195
1761235832366492700,2.81549267578125,0.3200933933258056,0.347276896238327,-0.1493565589189529
1761235832384530200,2.8335302734375,0.3634648323059082,0.1889100819826126,-0.1229366287589073
1761235832402568700,2.851568603515625,0.4060726761817932,0.0224492978304624,-0.1351539343595504
1761235832420596000,2.869595947265625,0.4210388660430908,-0.1864666193723678,-0.1849394589662552
1761235832438647000,2.88764697265625,0.3711006343364715,-0.3387247920036316,-0.2536617815494537
1761235832456677400,2.905677490234375,0.2460259795188903,-0.4050036668777466,-0.3058907687664032
1761235832474724600,2.923724609375,0.0881173089146614,-0.3769038617610931,-0.2918408811092376
1761235832492764000,2.941763916015625,-0.0539088584482669,-0.2926044464111328,-0.1886046379804611
1761235832510802200,2.95980224609375,-0.1513418704271316,-0.270766019821167,-0.0884227454662323
1761235832528841000,2.977841064453125,-0.2156354337930679,-0.3173444867134094,-0.0462730415165424
1761235832546880300,2.99588037109375,-0.2703078687191009,-0.3060434758663177,-0.0442877300083637
1761235832564919000,3.0139189453125,-0.3356704413890838,-0.2260201424360275,-0.051312681287527
1761235832582957800,3.031957763671875,-0.4054618179798126,-0.0610865242779254,0.0042760567739605
1761235832600997000,3.0499970703125,-0.3787364661693573,0.1847867369651794,0.1372919678688049
1761235832619034400,3.068034423828125,-0.233197808265686,0.2451096773147583,0.2396118938922882
1761235832637075700,3.08607568359375,-0.0621555373072624,0.1540907621383667,0.1783726513385772
1761235832655113700,3.10411376953125,-0.0059559359215199,-0.0056505035609006,-0.104763388633728
1761235832673152300,3.12215234375,-0.1661553531885147,-0.2973386645317077,-0.5296201705932617
1761235832691191000,3.14019091796875,-0.5354233980178833,-0.6079636216163635,-0.8533787727355957
1761235832709229800,3.158229736328125,-0.9089674949645996,-0.6835582256317139,-0.7765624523162842
1761235832727269000,3.17626904296875,-1.111621975898743,-0.2704605758190155,-0.2756529450416565
1761235832745308000,3.194307861328125,-1.0548115968704224,0.3738495409488678,0.3043636083602905
1761235832763347000,3.212346923828125,-0.755182147026062,0.749531626701355,0.626747727394104
1761235832781385700,3.2303857421875,-0.3529273867607116,0.812908947467804,0.7153232097625732
1761235832799424500,3.248424560546875,0.0221438650041818,0.5992587804794312,0.7312057018280029
1761235832817464000,3.266464111328125,0.2591595947742462,0.2458732575178146,0.7675521969795227
1761235832835502600,3.284502685546875,0.3013092875480652,-0.1922698318958282,0.7559457421302795
1761235832853539800,3.302539794921875,0.1598939746618271,-0.6049093008041382,0.6264423131942749
1761235832871573200,3.3205732421875,-0.1273654103279113,-0.877966046333313,0.28557950258255
1761235832889609000,3.33860888671875,-0.432034432888031,-0.9527970552444458,-0.1139263659715652
1761235832907657500,3.356657470703125,-0.6452264189720154,-0.683863639831543,-0.3544545471668243
1761235832925696500,3.374696533203125,-0.6737843751907349,-0.1783726513385772,-0.3654501438140869
1761235832943735800,3.39273583984375,-0.4358523488044739,0.2987131178379059,-0.2524400651454925
1761235832961774600,3.410774658203125,-0.0734565481543541,0.5372560024261475,-0.1623374372720718
1761235832979813400,3.4288134765625,0.1977676302194595,0.5624541640281677,-0.107512280344963
1761235832997851100,3.44685107421875,0.3295617997646332,0.442266434431076,-0.066737025976181
1761235833015891200,3.46489111328125,0.3147483170032501,0.2687807083129883,-0.0296269636601209
1761235833033928400,3.482928466796875,0.2347249686717987,0.1203404515981674,-0.0222965814173221
1761235833051967700,3.5009677734375,0.1366810947656631,0.0519235469400882,-0.0334448739886283
1761235833070009300,3.51900927734375,0.0607810914516449,0.0238237436860799,-0.1143845170736312
1761235833088046300,3.53704638671875,0.0691804885864257,0.058184914290905,-0.2160935848951339
1761235833106085600,3.555085693359375,0.1235474944114685,0.0978911519050598,-0.2796235680580139
1761235833124114700,3.57311474609375,0.1927279829978943,0.1337794959545135,-0.2774855494499206
1761235833142163500,3.59116357421875,0.2696970105171203,0.1685988008975982,-0.2412917762994766
1761235833160202200,3.6092021484375,0.3446807265281677,0.2159408628940582,-0.1773036420345306
1761235833178241300,3.6272412109375,0.3827070891857147,0.2474004179239273,-0.1386664062738418
1761235833196279800,3.64527978515625,0.3930917978286743,0.2524400651454925,-0.1304197311401367
1761235833214318800,3.66331884765625,0.3530801236629486,0.2292271852493286,-0.1276708394289016
1761235833232358000,3.68135791015625,0.3026837408542633,0.1879937797784805,-0.1081231459975242
1761235833250396400,3.699396484375,0.2603813111782074,0.1690569519996643,-0.0642935633659362
1761235833268435700,3.717435791015625,0.211817517876625,0.207236036658287,-0.0195476878434419
1761235833286462200,3.735462158203125,0.1788308024406433,0.235030397772789,0.009010262787342
1761235833304513500,3.753513427734375,0.167377084493637,0.2121229618787765,-0.0080939643085002
1761235833322552000,3.771552001953125,0.1725694388151168,0.1919644027948379,-0.0291688162833452
1761235833340590800,3.7895908203125,0.1730275750160217,0.1049161031842231,-0.0372627787292003
1761235833358629600,3.807629638671875,0.1779145002365112,0.0531452745199203,-0.0080939643085002
1761235833376668700,3.825668701171875,0.1724167168140411,0.0140499006956815,0.0676533281803131
1761235833394707500,3.84370751953125,0.16920967400074,0.0485637858510017,0.16920967400074
1761235833412746500,3.86174658203125,0.1742493063211441,0.116827979683876,0.235030397772789
1761235833430785000,3.879784912109375,0.1606575548648834,0.192422553896904,0.2553416788578033
1761235833448824000,3.897823974609375,0.1430951803922653,0.2617557644844055,0.2525927722454071
1761235833466863000,3.915863037109375,0.1779145002365112,0.4572326242923736,0.3116939961910248
1761235833484902000,3.93390185546875,0.3188716471195221,0.6200281977653503,0.3845396637916565
1761235833502941000,3.95194091796875,0.5001459121704102,0.5514585971832275,0.3923282027244568
1761235833520980500,3.96998046875,0.5849034786224365,0.3342960178852081,0.2663372457027435
1761235833539018000,3.98801806640625,0.4767803251743316,-0.0276416521519422,-0.0262672062963247
1761235833557057300,4.006057373046875,0.1366810947656631,-0.4276056587696075,-0.357508897781372
1761235833575096000,4.024095947265625,-0.2849686443805694,-0.556345522403717,-0.4960225820541382
1761235833593135000,4.042135009765625,-0.5125159621238708,-0.3014619946479797,-0.3292563557624817
1761235833611174000,4.060173828125,-0.4440990388393402,0.1487456858158111,0.0027488935738801
1761235833629213000,4.078212890625,-0.1655444800853729,0.3900374472141266,0.252134621143341
1761235833647251700,4.096251708984375,0.173791155219078,0.4754058718681335,0.3391829133033752
1761235833665290200,4.114290283203125,0.4167627990245819,0.4584543704986572,0.3182607889175415
1761235833683328500,4.13232861328125,0.5114469528198242,0.3243694305419922,0.2751947939395904
1761235833701370000,4.1503701171875,0.4292855560779571,0.1247692257165908,0.26190847158432
1761235833719407000,4.168406982421875,0.2667953968048095,-0.1001818999648094,0.2396118938922882
1761235833737446100,4.186446044921875,0.1036943718791008,-0.2904664278030395,0.1829541474580764
1761235833755484700,4.204484619140625,-0.0607810914516449,-0.2736676335334778,0.1113301888108253
1761235833773524000,4.22252392578125,-0.204487144947052,-0.0740674138069152,-0.0085521135479211
1761235833791558700,4.24055859375,-0.2713768780231476,0.1035416573286056,-0.2136501222848892
1761235833809601500,4.2586015625,-0.2217440903186798,0.1601994037628173,-0.3863722681999206
1761235833827640600,4.276640625,-0.1243110746145248,0.145080491900444,-0.4218024611473083
1761235833845679600,4.2946796875,-0.0516181141138076,0.1430951803922653,-0.3393356502056122
1761235833863718100,4.31271826171875,-0.0261144898831844,0.2197587788105011,-0.2087631970643997
1761235833881757200,4.330757080078125,-0.0123700210824608,0.2898555696010589,-0.1733330190181732
1761235833899795500,4.34879541015625,0.0290160998702049,0.2922990322113037,-0.2379320114850998
1761235833917835500,4.36683544921875,0.0736092627048492,0.2092213481664657,-0.327271044254303
1761235833935873800,4.384873779296875,0.0768163055181503,0.0601702257990837,-0.4375322461128235
1761235833953908700,4.40290869140625,0.0436768643558025,-0.0494800843298435,-0.4957171380519867
1761235833971951600,4.42095166015625,-0.036499198526144,-0.1536326110363006,-0.3775147199630737
1761235833989990700,4.43899072265625,-0.1113301888108253,-0.1751656085252761,-0.128434419631958
1761235834008029200,4.457029296875,-0.1852448880672454,-0.2648100852966308,0.0719293802976608
1761235834026067700,4.475067626953125,-0.2678644061088562,-0.3594942092895508,0.1886046379804611
1761235834044106800,4.493106689453125,-0.333379715681076,-0.3681990206241607,0.1660026311874389
1761235834062145800,4.511145751953125,-0.3596469163894653,-0.3078760802745819,0.0554360225796699
1761235834080184800,4.529184814453125,-0.3788891732692718,-0.2730567753314972,-0.0343611687421798
1761235834098223600,4.5472236328125,-0.4065308272838592,-0.342695415019989,-0.061391957104206
1761235834116262700,4.5652626953125,-0.4306600093841553,-0.3930917978286743,0.0154243474826216
1761235834134301400,4.583301513671875,-0.4378376603126526,-0.3947716653347015,0.1327104717493057
1761235834152340200,4.60134033203125,-0.4440990388393402,-0.3926336467266083,0.2160935848951339
1761235834170378800,4.619378662109375,-0.4434881806373596,-0.3510948121547699,0.2034181207418441
1761235834188418000,4.63741796875,-0.3788891732692718,-0.2244929820299148,0.1145372316241264
1761235834206456800,4.655456787109375,-0.355981707572937,-0.1898263692855835,-0.0293215326964855
1761235834224495600,4.67349560546875,-0.4665483236312866,-0.2916881442070007,-0.2890919744968414
1761235834242534400,4.691534423828125,-0.6604980230331421,-0.5462662577629089,-0.650418758392334
1761235834260573200,4.7095732421875,-0.8423831462860107,-0.7026477456092834,-0.9169087409973145
1761235834278612200,4.7276123046875,-0.9263771176338196,-0.6455318331718445,-0.912327229976654
1761235834296651300,4.7456513671875,-0.9066767692565918,-0.3202461004257202,-0.5916230082511902
1761235834314689800,4.763689697265625,-0.8153523802757263,0.0638354197144508,-0.1721112877130508
1761235834332727600,4.7817275390625,-0.6760751008987427,0.2083050459623336,0.1971567571163177
1761235834350756600,4.799756591796875,-0.5198463201522827,0.1000291854143142,0.5074763298034668
1761235834368808700,4.81780859375,-0.337044894695282,-0.1895209401845932,0.6520986557006836
1761235834386844000,4.835843994140625,-0.1481348276138305,-0.4642575979232788,0.6508769392967224
1761235834404885800,4.8538857421875,-0.0867428630590438,-0.5511531829833984,0.5740606188774109
1761235834422923000,4.871923095703125,-0.1055269688367843,-0.5256495475769043,0.3824016451835632
1761235834440962000,4.889962158203125,-0.1614211350679397,-0.4836525619029999,0.1339322030544281
1761235834458994700,4.90799462890625,-0.2579378485679626,-0.3859141170978546,-0.0910189226269722
1761235834477039900,4.926039794921875,-0.3507893681526184,-0.1472185254096985,-0.2341141104698181
1761235834495078400,4.944078369140625,-0.3521638214588165,0.0766635909676551,-0.2318233549594879
1761235834513117400,4.962117431640625,-0.235030397772789,0.1685988008975982,-0.1421788930892944
1761235834531156200,4.98015625,-0.0448985956609249,0.101709060370922,-0.0615446716547012
1761235834549183200,4.998183349609375,0.1270599663257599,0.0630718395113945,0.0100792767480015
1761235834567233800,5.01623388671875,0.1992947906255722,0.0690277740359306,0.0316122770309448
1761235834585273300,5.0342734375,0.2002110779285431,0.1169806942343711,0.0207694191485643
1761235834603311600,5.0523115234375,0.1528690308332443,0.1476766765117645,-0.0255036242306232
1761235834621335600,5.07033544921875,0.0956004112958908,0.1679879426956176,-0.057115901261568
1761235834639389200,5.08838916015625,0.0386372283101081,0.1492038369178772,-0.0514653958380222
1761235834657428700,5.1064287109375,-0.0343611687421798,0.0988074541091919,-0.0540615729987621
1761235834675467000,5.124467041015625,-0.0464257597923278,0.1058324053883552,-0.0612392425537109
1761235834693505800,5.142505859375,-0.0135917514562606,0.1165225431323051,-0.1087340116500854
1761235834711544800,5.160544921875,0.0413861200213432,0.1146899461746215,-0.2167044430971145
1761235834729583000,5.1785830078125,0.11636982858181,0.1007927656173706,-0.2741257846355438
1761235834747623200,5.196623046875,0.1814269721508026,0.1038470938801765,-0.2513710558414459
1761235834765661400,5.214661376953125,0.2277000248432159,0.0875064432621002,-0.1661553531885147
1761235834783700500,5.232700439453125,0.2590068578720093,0.0661261603236198,-0.0490219369530677
1761235834801739300,5.2507392578125,0.280998021364212,0.0348193198442459,0.024892758578062
1761235834819778300,5.2687783203125,0.2883284091949463,-0.0108428578823804,0.0218384321779012
1761235834837817000,5.286817138671875,0.2744311988353729,-0.0088575463742017,0.0064140851609408
1761235834855854000,5.30485400390625,0.256868839263916,0.0580321997404098,0.0574213340878486
1761235834873892400,5.322892333984375,0.2370157092809677,0.0540615729987621,0.1444696336984634
1761235834891933200,5.34093310546875,0.2272418737411499,-0.0219911485910415,0.2469422817230224
1761235834909972000,5.358971923828125,0.2318233549594879,-0.1032362282276153,0.3162754774093628
1761235834928011000,5.377010986328125,0.2732094824314117,-0.1595885455608368,0.3520110845565796
1761235834946050000,5.395050048828125,0.3414736688137054,-0.015118914656341,0.4222606122493744
1761235834964089000,5.413089111328125,0.4192062616348266,0.2069306075572967,0.3987422883510589
1761235834982127900,5.4311279296875,0.4689917862415313,0.2023491114377975,0.1841758787631988
1761235835000166700,5.449166748046875,0.4399756789207458,-0.036499198526144,-0.2052507251501083
1761235835018205400,5.467205322265625,0.275805652141571,-0.2429716438055038,-0.5416847467422485
1761235835036244700,5.48524462890625,0.0826195254921913,-0.1656972020864486,-0.5688682794570923
1761235835054278700,5.503278564453125,0.0007635815418325,0.0789543315768241,-0.230907067656517
1761235835072322000,5.521322021484375,0.0720821022987365,0.3692680299282074,0.2977968156337738
1761235835090349000,5.53934912109375,0.2249511331319809,0.5479460954666138,0.6672175526618958
1761235835108399900,5.55739990234375,0.3501785099506378,0.556345522403717,0.7289149761199951
1761235835126424600,5.575424560546875,0.4213443100452423,0.3689626157283783,0.5723807215690613
1761235835144477400,5.5934775390625,0.4355469346046448,0.159435823559761,0.3556762933731079
1761235835162516200,5.61151611328125,0.3683517575263977,0.0041233403608202,0.1362229436635971
1761235835180555300,5.62955517578125,0.3029891550540924,-0.1930334120988845,-0.1518000066280365
1761235835198593800,5.64759375,0.2353358417749405,-0.3031418919563293,-0.4321871697902679
1761235835216632800,5.6656328125,0.1230893433094024,-0.1560760736465454,-0.4938845634460449
1761235835234671900,5.683671875,0.00137444678694,0.1959350258111953,-0.4040873646736145
1761235835252710700,5.701710693359375,0.0500909499824047,0.5560401082038879,-0.2675589919090271
1761235835270737400,5.7197373046875,0.221591368317604,0.7029531598091125,-0.1634064465761184
1761235835288792000,5.7377919921875,0.4309654235839844,0.6013968586921692,-0.090408056974411
1761235835306828800,5.755828857421875,0.5908594131469727,0.414013922214508,-0.0203112699091434
1761235835324866000,5.773865966796875,0.670577347278595,0.3022255897521972,0.0238237436860799
1761235835342904800,5.79190478515625,0.6783658266067505,0.2622139155864715,0.0390953756868839
1761235835360943600,5.809943603515625,0.6409503817558289,0.2970332205295563,0.0313068442046642
1761235835378982400,5.827982421875,0.5787948369979858,0.318413496017456,0.04505131021142
1761235835397021200,5.846021240234375,0.5073235630989075,0.2796235680580139,0.1009454801678657
1761235835415060500,5.864060546875,0.4344778954982757,0.1650863289833068,0.1046106740832328
1761235835433099000,5.88209912109375,0.3413209617137909,0.052381694316864,0.0319177098572254
1761235835451138000,5.900137939453125,0.2428189367055893,0.0022907445672899,-0.0366519130766391
1761235835469176800,5.9181767578125,0.183106854557991,-0.042302418500185,-0.0251981914043426
1761235835487215400,5.93621533203125,0.1650863289833068,-0.0905607715249061,0.0126754539087414
1761235835505253000,5.954253173828125,0.1200350224971771,-0.168751522898674,0.0166460778564214
1761235835523293400,5.97229345703125,0.0612392425537109,-0.280539870262146,-0.0047342055477201
1761235835541333500,5.99033349609375,0.00534507073462,-0.3601050674915313,-0.0160352122038602
1761235835559370200,6.008370361328125,-0.0794124826788902,-0.3901901841163635,-0.0314595587551593
1761235835577410000,6.02641015625,-0.1655444800853729,-0.3975205719470978,-0.0688750594854354
1761235835595448600,6.044448486328125,-0.2240348309278488,-0.3643811047077179,-0.048105638474226
1761235835613487600,6.062487548828125,-0.252745509147644,-0.1988366395235061,0.1136209368705749
1761235835631526100,6.080526123046875,-0.2791654169559479,-0.0125227374956011,0.3300199508666992
1761235835649565200,6.098565185546875,-0.3107776939868927,0.0759000033140182,0.4699080884456634
1761235835667604200,6.116604248046875,-0.2826778888702392,0.1957823038101196,0.5053382515907288
1761235835685641500,6.134641357421875,-0.1852448880672454,0.2481640130281448,0.4610505402088165
1761235835703683600,6.15268359375,-0.1417207419872284,0.1233947798609733,0.3437644243240356
1761235835721720600,6.170720458984375,-0.2519819140434265,-0.1258382350206375,0.1514945775270462
1761235835739759400,6.18875927734375,-0.5048801302909851,-0.257326990365982,-0.0148134818300604
1761235835757796000,6.206796142578125,-0.7283040881156921,-0.2623666226863861,-0.0615446716547012
1761235835775837400,6.22483740234375,-0.8275696635246277,-0.1363756656646728,0.0319177098572254
1761235835793872600,6.24287255859375,-0.7748825550079346,0.0934623852372169,0.2289217561483383
1761235835811915000,6.2609150390625,-0.6322455406188965,0.2874121069908142,0.490066647529602
1761235835829953800,6.278953857421875,-0.4172209501266479,0.4022547602653503,0.720820963382721
1761235835847992300,6.296992431640625,-0.1189660057425499,0.3817907869815826,0.831234872341156
1761235835866031400,6.31503125,0.157145082950592,0.2064724564552307,0.817948579788208
1761235835884065500,6.3330654296875,0.328187346458435,0.0183259565383195,0.7669413089752197
1761235835902109400,6.351109375,0.3822489380836487,-0.1624901592731475,0.6707300543785095
1761235835920148500,6.3691484375,0.3268128931522369,-0.3869831264019012,0.4415028691291809
1761235835938186800,6.387186767578125,0.1328631937503814,-0.6006332635879517,0.0665843114256858
1761235835956225500,6.4052255859375,-0.1444696336984634,-0.7464773058891296,-0.3627012372016907
1761235835974264800,6.423264892578125,-0.4303545653820038,-0.6230825781822205,-0.6777549982070923
1761235835992303400,6.441303466796875,-0.6630942225456238,-0.152105450630188,-0.7742717266082764
1761235836010342000,6.459341796875,-0.7063129544258118,0.4075998365879059,-0.7136433124542236
1761235836028380700,6.477380615234375,-0.5488623976707458,0.7727445363998413,-0.6385068893432617
1761235836046419700,6.495419677734375,-0.280387133359909,0.9001099467277527,-0.6026185750961304
1761235836064458800,6.513458740234375,-0.0108428578823804,0.816726803779602,-0.5607742667198181
1761235836082497500,6.53149755859375,0.1501201391220092,0.6094908118247986,-0.4482223689556122
1761235836100524800,6.54952490234375,0.1484402567148208,0.3568980097770691,-0.2698497176170349
1761235836118563600,6.5675634765625,0.009010262787342,0.1079704314470291,-0.1250746548175811
1761235836136604200,6.585604248046875,-0.1708895564079284,-0.032223142683506,-0.0690277740359306
1761235836154653000,6.60365283203125,-0.2444988191127777,-0.0615446716547012,-0.042302418500185
1761235836172692000,6.62169189453125,-0.1860084682703018,-0.0485637858510017,-0.0360410511493682
1761235836190719000,6.639718994140625,-0.0748309940099716,-0.0145080499351024,-0.0429132841527462
1761235836208769300,6.657769287109375,0.0601702257990837,0.0488692186772823,-0.0563523173332214
1761235836226808000,6.67580810546875,0.1792889535427093,0.1395827084779739,-0.0516181141138076
1761235836244847000,6.69384716796875,0.2577851414680481,0.2110539376735687,-0.0174096599221229
1761235836262886000,6.711885986328125,0.2997821271419525,0.1881465017795562,0.0398589558899402
1761235836280925000,6.729925048828125,0.3104722499847412,0.1414152979850769,0.086895577609539
1761235836298963700,6.747963623046875,0.3075706362724304,0.0978911519050598,0.122631199657917
1761235836317002500,6.76600244140625,0.299476683139801,0.0520762614905834,0.1207986027002334
1761235836335041500,6.78404150390625,0.2672535479068756,0.0500909499824047,0.1379028260707855
1761235836353078800,6.802078857421875,0.2078468948602676,0.0594066455960273,0.1621847152709961
1761235836371121000,6.820120849609375,0.1747074574232101,0.0485637858510017,0.1968513280153274
1761235836389158100,6.838158203125,0.1666134893894195,0.0487165041267871,0.2741257846355438
1761235836407196700,6.85619677734375,0.1754710376262664,0.0424551330506801,0.3520110845565796
1761235836425222700,6.87422265625,0.2426662147045135,0.1615738570690155,0.3933972120285034
1761235836443274500,6.8922744140625,0.3878994286060333,0.3488040566444397,0.4051563739776611
1761235836461313000,6.91031298828125,0.4760167300701141,0.3486513495445251,0.3222314119338989
1761235836479351800,6.928351806640625,0.4289801120758056,0.0532979927957057,0.0813977941870689
1761235836497391600,6.9463916015625,0.1942551434040069,-0.3124575614929199,-0.2364048510789871
1761235836515429600,6.9644296875,-0.1246165111660957,-0.3804163336753845,-0.3604104816913605
1761235836533468700,6.98246875,-0.3310889601707458,-0.1719585657119751,-0.1719585657119751
1761235836551507500,7.000507568359375,-0.3547599911689758,0.2070833146572113,0.119118720293045
1761235836569546000,7.0185458984375,-0.2645046412944793,0.4164573848247528,0.2496911734342575
1761235836587585000,7.0365849609375,-0.1014036312699318,0.4440990388393402,0.3321579694747925
1761235836605624000,7.0546240234375,0.0745255574584007,0.337503045797348,0.4433354437351227
1761235836623648500,7.0726484375,0.2157881408929824,0.2110539376735687,0.5145012736320496
1761235836643955200,7.092955078125,0.2556470930576324,-0.0517708286643028,0.3648392558097839
1761235836661995300,7.110995361328125,0.1870774775743484,-0.3711006343364715,0.0135917514562606
1761235836680035300,7.129035400390625,0.0655152946710586,-0.6476698517799377,-0.4787656366825104
1761235836698072800,7.14707275390625,-0.0884227454662323,-0.68951416015625,-0.8064948320388794
1761235836716109300,7.165109375,-0.2739730477333069,-0.480292797088623,-0.8316930532455444
1761235836734150400,7.183150390625,-0.4323398768901825,-0.1884519308805465,-0.6621779203414917
1761235836752190700,7.201190673828125,-0.4775438904762268,0.0426078513264656,-0.4147774875164032
1761235836770228200,7.219228271484375,-0.3769038617610931,0.0595593601465225,-0.1908953934907913
1761235836788268500,7.2372685546875,-0.1721112877130508,-0.0623082555830478,-0.0236710291355848
1761235836806306000,7.25530615234375,0.042302418500185,-0.1617265790700912,0.0763581544160842
1761235836824346000,7.27334619140625,0.1780672222375869,-0.1534798890352249,0.1267545372247696
1761235836842381800,7.2913818359375,0.2189951837062835,-0.1192714422941207,0.1545489132404327
1761235836860425700,7.30942578125,0.18539759516716,-0.0956004112958908,0.1631010174751281
1761235836878461400,7.32746142578125,0.1317941695451736,-0.0076358155347406,0.1363756656646728
1761235836896501000,7.3455009765625,0.0948368310928344,0.0058032199740409,0.0971275717020034
1761235836914539000,7.3635390625,0.0775798857212066,-0.0181732401251792,0.0636827051639556
1761235836932578800,7.381578857421875,0.0311541277915239,-0.1278235465288162,0.0291688162833452
1761235836950616800,7.399616943359375,-0.056657750159502,-0.3446807265281677,0.0459676086902618
1761235836968656600,7.41765673828125,-0.1256855279207229,-0.4575380682945251,0.096669428050518
1761235836986694400,7.4356943359375,-0.1528690308332443,-0.5022839307785034,0.0952949747443199
1761235837004734200,7.453734130859375,-0.1918116807937622,-0.5006040930747986,0.0019853119738399
1761235837022769400,7.471769287109375,-0.26190847158432,-0.370947927236557,-0.0691804885864257
1761235837040814800,7.48981494140625,-0.3135266005992889,-0.2176207453012466,-0.1192714422941207
1761235837058849800,7.507849853515625,-0.3405573666095733,-0.2055561542510986,-0.1354593634605407
1761235837076889300,7.525889404296875,-0.3437644243240356,-0.2191479057073593,-0.1233947798609733
1761235837094924500,7.543924560546875,-0.2997821271419525,-0.2912299931049347,-0.0589484944939613
1761235837112975400,7.561975341796875,-0.2585487067699432,-0.3226895630359649,0.0120645882561802
1761235837131005000,7.5800048828125,-0.2441933751106262,-0.2817615866661072,0.0384845100343227
1761235837149045000,7.598044921875,-0.1744020283222198,-0.0827722400426864,0.1148426681756973
1761235837167082500,7.61608251953125,-0.0473420582711696,0.1991420686244964,0.237779289484024
1761235837185122800,7.634122802734375,-0.0774271711707115,0.1910481005907058,0.3251330256462097
1761235837203160300,7.652160400390625,-0.2061670273542404,-0.0872010141611099,0.2458732575178146
1761235837221200100,7.6702001953125,-0.3998112976551056,-0.4050036668777466,0.0022907445672899
1761235837239238100,7.688238037109375,-0.6959282159805298,-0.4547891616821289,-0.2585487067699432
1761235837257278200,7.7062783203125,-0.8965974450111389,-0.2367102801799774,-0.3550654351711273
1761235837275315700,7.724315673828125,-0.908203899860382,0.1180497109889984,-0.2390010207891464
1761235837293348600,7.7423486328125,-0.7391469478607178,0.3962988257408142,-0.0189368221908807
1761235837311393500,7.7603935546875,-0.5102251768112183,0.4243986308574676,0.2182316035032272
1761235837329433000,7.77843310546875,-0.3074179291725158,0.2185370475053787,0.4462370574474334
1761235837347471000,7.79647119140625,-0.1273654103279113,-0.1130100712180137,0.6215553879737854
1761235837365511000,7.814510986328125,-0.0163406450301408,-0.3484986126422882,0.6638578176498413
1761235837383548400,7.83254833984375,0.0113010071218013,-0.5253441333770752,0.4917465150356293
1761235837401587700,7.850587646484375,-0.0595593601465225,-0.68325275182724,0.1111774742603302
1761235837419627500,7.86862744140625,-0.2167044430971145,-0.6346889734268188,-0.2429716438055038
1761235837437666600,7.88666650390625,-0.3888157308101654,-0.2684752643108368,-0.4361577928066253
1761235837455704300,7.904704345703125,-0.4934264123439789,0.1240056455135345,-0.5236642360687256
1761235837473744000,7.922743896484375,-0.4792237877845764,0.3094032406806946,-0.513126790523529
1761235837491781600,7.94078173828125,-0.3562871515750885,0.2831360399723053,-0.4234823286533355
1761235837509820400,7.9588203125,-0.1921171247959137,0.1247692257165908,-0.2524400651454925
1761235837527860700,7.97686083984375,-0.0607810914516449,-0.0209221355617046,-0.111024759709835
1761235837545899300,7.994899169921875,-0.0258090570569038,-0.0120645882561802,-0.032223142683506
1761235837563937000,8.01293701171875,-0.1076650023460388,0.0536034256219863,-0.0192422550171613
1761235837581976800,8.030976806640625,-0.2047925740480423,0.1725694388151168,-0.0655152946710586
1761235837600014600,8.0490146484375,-0.280387133359909,0.1748601794242859,-0.1276708394289016
1761235837618055000,8.067054931640625,-0.3130684494972229,0.1849394589662552,-0.1663080602884292
1761235837636088600,8.085088623046875,-0.294437050819397,0.2480112910270691,-0.1850921660661697
1761235837654132500,8.103132568359374,-0.2217440903186798,0.299476683139801,-0.1919644027948379
1761235837672167200,8.121167236328125,-0.105221539735794,0.3316998183727264,-0.2098322063684463
1761235837690213000,8.139213134765624,0.0167987942695617,0.3255911767482757,-0.2206750661134719
1761235837708247000,8.1572470703125,0.1411098688840866,0.2243402600288391,-0.2150245606899261
1761235837726287600,8.17528759765625,0.2748893499374389,0.1795943826436996,-0.1534798890352249
1761235837744325400,8.193325439453124,0.3451388776302337,0.1319468915462494,-0.0655152946710586
1761235837762365200,8.211365234375,0.3588833212852478,0.2110539376735687,-0.0178678091615438
1761235837780403000,8.22940283203125,0.3581197559833526,0.3310889601707458,-0.1768454909324646
1761235837798433300,8.247433349609375,0.3912591934204101,0.4512766897678375,-0.2037235647439956
1761235837816480800,8.265480712890625,0.3196352422237396,0.6003278493881226,0.0700967833399772
1761235837834520600,8.2835205078125,0.154396191239357,-0.0612392425537109,0.1290452778339386
1761235837852558600,8.30155859375,0.1171334087848663,-0.2373211532831192,0.0694859251379966
1761235837870598000,8.319597900390624,-0.005192354787141,0.0346666015684604,0.1148426681756973
1761235837888636200,8.33763623046875,-0.026419922709465,0.375987559556961,0.3152064681053161
1761235842747626200,0.098626220703125,0.047036625444889,0.1722639948129654,0.1041525229811668
1761235842765861000,0.116861083984375,0.0042760567739605,0.1273654103279113,0.1740965992212295
1761235842783904800,0.13490478515625,-0.0456621758639812,0.0314595587551593,0.1395827084779739
1761235842801955300,0.152955322265625,-0.0905607715249061,-0.0687223374843597,-0.0371100641787052
1761235842819982300,0.170982421875,-0.1039998084306716,-0.072998397052288,-0.2548835277557373
1761235842838033200,0.189033203125,-0.1209513172507286,-0.0102319931611418,-0.3654501438140869
1761235842856076000,0.207075927734375,-0.1012509167194366,0.0430659987032413,-0.2982549667358398
1761235842874110500,0.2251103515625,-0.0554360225796699,-0.0006108652451075,-0.152105450630188
1761235842892149000,0.24314892578125,-0.0186313893646001,-0.0682641938328743,0.0004581489483825
1761235842910188300,0.261188232421875,0.0187841057777404,-0.1233947798609733,0.078801617026329
1761235842928227000,0.27922705078125,0.061391957104206,-0.0745255574584007,0.0774271711707115
1761235842946266000,0.29726611328125,0.1136209368705749,0.0174096599221229,0.039248090237379
1761235842964304600,0.3153046875,0.1609629988670349,0.0403171069920063,-0.0455094613134861
1761235842982343200,0.33334326171875,0.1608102768659591,-0.0319177098572254,-0.1492038369178772
1761235843000382200,0.35138232421875,0.0997237488627433,-0.1681406646966934,-0.2625193297863006
1761235843018420700,0.369420654296875,0.0424551330506801,-0.2281581759452819,-0.3492622077465057
1761235843036459500,0.38745947265625,0.058184914290905,-0.1895209401845932,-0.3394883573055267
1761235843054498000,0.405498046875,0.1437060534954071,-0.1563815027475357,-0.2333505302667617
1761235843072536800,0.423536865234375,0.2122756689786911,-0.2087631970643997,-0.1748601794242859
1761235843090575600,0.44157568359375,0.2115120887756347,-0.2509129047393799,-0.1754710376262664
1761235843108610800,0.45961083984375,0.1695151031017303,-0.247553139925003,-0.1980730593204498
1761235843126657300,0.4776572265625,0.1408044397830963,-0.1160643994808197,-0.2084577679634094
1761235843144692500,0.4956923828125,0.0986547395586967,0.0658207312226295,-0.2006692290306091
1761235843162731300,0.513731201171875,0.0406225398182868,0.247094988822937,-0.1528690308332443
1761235843180769800,0.531769775390625,0.016951510682702,0.3202461004257202,-0.1151480972766876
1761235843198808600,0.54980859375,0.0271835029125213,0.2706133127212524,-0.1423316001892089
1761235843216847400,0.567847412109375,0.0287106670439243,0.1945605874061584,-0.2426662147045135
1761235843234886000,0.585885986328125,0.0161879286170005,0.1305724531412124,-0.3109304010868072
1761235843252924700,0.603924560546875,0.0128281703218817,0.113315500319004,-0.3011565804481506
1761235843270963500,0.62196337890625,0.0323758572340011,0.1085812970995903,-0.2315179258584976
1761235843288990500,0.639990478515625,0.0856738537549972,0.0739146918058395,-0.1527163088321685
1761235843307041300,0.658041259765625,0.1348485052585601,0.0438295826315879,-0.0905607715249061
1761235843325080000,0.676080078125,0.1676825135946273,0.0565050356090068,-0.0655152946710586
1761235843349885200,0.70088525390625,0.2069306075572967,0.061391957104206,-0.0748309940099716
1761235843367920000,0.718920166015625,0.2076941877603531,0.0839939713478088,-0.0632245540618896
1761235843385960700,0.736960693359375,0.1884519308805465,0.1094975918531417,-0.0445931628346443
1761235843403998200,0.754998291015625,0.1679879426956176,0.147829383611679,-0.0371100641787052
1761235843422029800,0.77302978515625,0.156686931848526,0.145080491900444,-0.0354301854968071
1761235843440076300,0.791076171875,0.1550070494413375,0.1572978049516677,-0.0088575463742017
1761235843458116000,0.8091162109375,0.1557706445455551,0.1238529309630394,-0.0058032199740409
1761235843476150000,0.82714990234375,0.1601994037628173,0.0580321997404098,-0.0094684110954403
1761235843494193700,0.845193603515625,0.1569923609495163,-0.0476474873721599,0.0189368221908807
1761235843512228900,0.863228759765625,0.1635591685771942,-0.2012801021337509,0.0913243517279625
1761235843530273500,0.8812734375,0.1800525337457656,-0.2270891517400741,0.2596177160739898
1761235843548308700,0.899308837890625,0.1661553531885147,-0.0841466858983039,0.5050328373908997
1761235843566343400,0.917343505859375,0.1482875347137451,0.152105450630188,0.6044511795043945
1761235843584386000,0.935385986328125,0.1821905523538589,0.2420553565025329,0.4240931868553161
1761235843602426000,0.953426025390625,0.1702786833047866,0.1800525337457656,0.0865901485085487
1761235843620463600,0.971463623046875,0.0601702257990837,0.016951510682702,-0.2580905556678772
1761235843638504000,0.98950390625,-0.1258382350206375,-0.1035416573286056,-0.4754058718681335
1761235843656541400,1.00754150390625,-0.2394591718912124,-0.0827722400426864,-0.4737260043621063
1761235843674581000,1.0255810546875,-0.2189951837062835,0.0323758572340011,-0.2458732575178146
1761235843692618800,1.04361865234375,-0.0907134860754013,0.2064724564552307,0.1082758679986
1761235843710658800,1.061658935546875,0.1102611795067787,0.3613267838954925,0.3733913898468017
1761235843728696600,1.079696533203125,0.3176499307155609,0.4360050559043884,0.4442517459392547
1761235843746736400,1.097736328125,0.4592179358005523,0.455705463886261,0.3689626157283783
1761235843764774100,1.115774169921875,0.5151121020317078,0.4300491213798523,0.2244929820299148
1761235843782813700,1.133813720703125,0.4590652287006378,0.3924809098243713,0.0763581544160842
1761235843800851700,1.151851806640625,0.3384193480014801,0.2984076738357544,-0.0568104684352874
1761235843818891500,1.1698916015625,0.1931861340999603,0.1734857261180877,-0.1699732542037964
1761235843836928800,1.1879287109375,0.0097738439217209,0.085062988102436,-0.2738203406333923
1761235843854968600,1.205968505859375,-0.1178969889879226,0.0045814891345798,-0.3656028509140014
1761235843872996600,1.22399658203125,-0.1223257631063461,0.019089538604021,-0.4137084782123565
1761235843891046400,1.24204638671875,-0.034972034394741,0.1055269688367843,-0.4045455157756805
1761235843909084200,1.260084228515625,0.0897971913218498,0.1939497143030166,-0.3765984177589416
1761235843927123700,1.278123779296875,0.2390010207891464,0.2342668175697326,-0.3233004212379455
1761235843945161700,1.29616162109375,0.3579670190811157,0.2533563673496246,-0.2251038402318954
1761235843963201800,1.314201904296875,0.4143193662166595,0.2483167201280594,-0.1096503138542175
1761235843981239300,1.3322392578125,0.4393648207187652,0.1857030391693115,-0.0083993971347808
1761235843999276500,1.350276611328125,0.4729624092578888,0.1218676194548606,0.0827722400426864
1761235844017316900,1.36831689453125,0.493731826543808,0.0479529201984405,0.1572978049516677
1761235844035359000,1.38635888671875,0.4912883639335632,-0.0432187169790267,0.166918933391571
1761235844053394000,1.404393798828125,0.456163614988327,-0.1134682223200798,0.1453859210014343
1761235844071434000,1.42243408203125,0.3663664162158966,-0.1875356286764145,0.1026253625750541
1761235844089459700,1.440459716796875,0.2217440903186798,-0.2467895597219467,0.0068722339347004
1761235844107511600,1.458511474609375,0.0348193198442459,-0.2386955916881561,-0.0920879393815994
1761235844125549300,1.47654931640625,-0.117286130785942,-0.1802052408456802,-0.1162171140313148
1761235844143589400,1.49458935546875,-0.195629596710205,-0.133015900850296,-0.1007927656173706
1761235844161625900,1.5126259765625,-0.2379320114850998,-0.1096503138542175,-0.0642935633659362
1761235844179666400,1.53066650390625,-0.2561052441596985,-0.1557706445455551,-0.0536034256219863
1761235844197706000,1.5487060546875,-0.1963931769132614,-0.193338856101036,-0.0473420582711696
1761235844215744300,1.566744140625,-0.1204931661486625,-0.221591368317604,-0.0505490973591804
1761235844233781500,1.584781494140625,-0.0997237488627433,-0.1968513280153274,-0.0536034256219863
1761235844251820500,1.602820556640625,-0.1418734490871429,-0.1417207419872284,-0.0595593601465225
1761235844269859600,1.620859619140625,-0.2021963894367218,-0.0968221426010131,-0.0018325957935303
1761235844287899000,1.63889892578125,-0.218842476606369,-0.0178678091615438,0.1800525337457656
1761235844305937200,1.656937255859375,-0.1487456858158111,0.0800233483314514,0.4190535545349121
1761235844323977200,1.674977294921875,-0.027030786499381,0.0771217346191406,0.5580254197120667
1761235844342014200,1.69301416015625,0.067195177078247,0.015118914656341,0.5167919993400574
1761235844360054000,1.711053955078125,0.0563523173332214,-0.0830776765942573,0.2409863322973251
1761235844378092000,1.729092041015625,-0.1884519308805465,-0.456163614988327,-0.271224170923233
1761235844396128500,1.74712841796875,-0.6046038866043091,-0.7652614116668701,-0.6901249885559082
1761235844414161200,1.7651611328125,-0.97830069065094,-0.3929390609264374,-0.547182559967041
1761235844432209400,1.78320947265625,-0.920879364013672,0.180816113948822,-0.0919352173805236
1761235844450248000,1.801248046875,-0.5865833759307861,0.5299255847930908,0.4065308272838592
1761235844468287000,1.819286865234375,-0.2348776906728744,0.5590944290161133,0.741895854473114
1761235844486314500,1.837314453125,0.0293215326964855,0.3639229834079742,0.9289733171463012
1761235844504364800,1.85536474609375,0.2035708427429199,0.1090394482016563,0.9743300676345824
1761235844522402800,1.87340283203125,0.2612976133823395,-0.0360410511493682,0.9804387092590332
1761235844540442400,1.8914423828125,0.2335032373666763,-0.1203404515981674,0.9355401396751404
1761235844558480600,1.909480712890625,0.1640173196792602,-0.309708684682846,0.7009678483009338
1761235844576519700,1.927519775390625,0.0505490973591804,-0.5090034604072571,0.3069597780704498
1761235844594558200,1.94555810546875,-0.1574505120515823,-0.4637994468212127,-0.0426078513264656
1761235844612597200,1.96359716796875,-0.437684953212738,-0.1519527286291122,-0.2826778888702392
1761235844630635800,1.9816357421875,-0.5830708742141724,0.1456913650035858,-0.4960225820541382
1761235844648674600,1.999674560546875,-0.5328271985054016,0.318413496017456,-0.5845980644226074
1761235844666713600,2.017713623046875,-0.3741549551486969,0.3121521472930908,-0.5193881988525391
1761235844684752100,2.035752197265625,-0.1508837193250656,0.156686931848526,-0.3923282027244568
1761235844702790700,2.053790771484375,0.0464257597923278,-0.015118914656341,-0.275347501039505
1761235844720829700,2.07182958984375,0.0972802937030792,-0.0687223374843597,-0.1901318132877349
1761235844738868000,2.089867919921875,0.0421497002243995,-0.0229074470698833,-0.1400408595800399
1761235844756906800,2.10790673828125,-0.0484110713005065,0.0510072484612464,-0.1459967941045761
1761235844774946000,2.125946044921875,-0.1154535338282585,0.1336267739534378,-0.1475239545106887
1761235844792984600,2.143984619140625,-0.1617265790700912,0.1175915598869323,-0.1675297915935516
1761235844811023600,2.162023681640625,-0.1246165111660957,0.0913243517279625,-0.1774563491344452
1761235844829062100,2.180062255859375,-0.0514653958380222,0.0293215326964855,-0.2026545405387878
1761235844847100700,2.1981005859375,0.0082466807216405,0.0360410511493682,-0.2480112910270691
1761235844865139700,2.2161396484375,0.046578474342823,0.0694859251379966,-0.2641992270946502
1761235844883177200,2.23417724609375,0.0630718395113945,0.0806342139840126,-0.2170098721981048
1761235844901218600,2.252218505859375,0.0748309940099716,0.0707076489925384,-0.1256855279207229
1761235844919255800,2.270255859375,0.0821613743901252,0.0820086598396301,-0.0419969856739044
1761235844937294600,2.288294677734375,0.1102611795067787,0.1273654103279113,-0.0119118718430399
1761235844955333000,2.3063330078125,0.1606575548648834,0.1757764816284179,-0.0113010071218013
1761235844973372400,2.324372314453125,0.2061670273542404,0.1965458989143371,-0.00335975876078
1761235844991410700,2.34241064453125,0.193338856101036,0.2017382532358169,-0.0371100641787052
1761235845009449200,2.36044921875,0.1385136991739273,0.2014328092336654,-0.1224784851074218
1761235845027487700,2.37848779296875,0.0699440687894821,0.1942551434040069,-0.2034181207418441
1761235845045528600,2.396528564453125,0.0311541277915239,0.2113593816757202,-0.2150245606899261
1761235845063566000,2.414566162109375,0.0607810914516449,0.2034181207418441,-0.1217148974537849
1761235845081604900,2.43260498046875,0.1598939746618271,0.2093740701675415,0.0175623763352632
1761235845099642600,2.450642578125,0.3119994103908539,0.2710714638233185,0.1229366287589073
1761235845117682700,2.4686826171875,0.4531092941761017,0.2872593700885772,0.1449277848005294
1761235845135721000,2.486720947265625,0.5212207436561584,0.3161227703094482,0.0410806871950626
1761235845153748000,2.504748046875,0.5071708559989929,0.3243694305419922,-0.1580613851547241
1761235845171798800,2.522798828125,0.3625485301017761,0.1348485052585601,-0.4532620012760162
1761235845189837300,2.54083740234375,0.0707076489925384,-0.173791155219078,-0.7072292566299438
1761235845207875800,2.558875732421875,-0.2261728644371032,-0.3300199508666992,-0.6189591884613037
1761235845225914600,2.57691455078125,-0.3298672437667846,-0.1088867336511612,-0.1018617823719978
1761235845243950000,2.5949501953125,-0.1053742542862892,0.2403754740953445,0.4728097021579742
1761235845261992400,2.612992431640625,0.3223841190338135,0.4796819388866424,0.7570147514343262
1761235845280031200,2.63103125,0.6429356932640076,0.4502076804637909,0.6976081132888794
1761235845298070000,2.649070068359375,0.7736608386039734,0.2180788964033126,0.4465425014495849
1761235845316102700,2.6671025390625,0.7177666425704956,-0.034972034394741,0.1803579628467559
1761235845334147300,2.685147216796875,0.5044219493865967,-0.1638645976781845,-0.0161879286170005
1761235845352185900,2.703185791015625,0.2165517359972,-0.3006984293460846,-0.2002110779285431
1761235845370225000,2.721224853515625,-0.0430659987032413,-0.3254384696483612,-0.3361285924911499
1761235845388263200,2.73926318359375,-0.1727221459150314,-0.299476683139801,-0.3681990206241607
1761235845406302200,2.75730224609375,-0.1612684279680252,-0.2191479057073593,-0.2932153046131134
1761235845424336100,2.775336181640625,-0.0377209298312664,-0.0757472887635231,-0.2009746730327606
1761235845442378500,2.79337841796875,0.155312493443489,0.072540245950222,-0.1160643994808197
1761235845460420000,2.811420166015625,0.3225368559360504,0.119576871395111,-0.0340557359158992
1761235845478457300,2.829457275390625,0.3952298164367676,0.0716239511966705,0.0529925599694252
1761235845496496000,2.84749609375,0.3744603991508484,0.0313068442046642,0.1287398487329483
1761235845514535000,2.865534912109375,0.2806925773620605,0.024892758578062,0.1708895564079284
1761235845532573700,2.88357373046875,0.193338856101036,0.0108428578823804,0.1518000066280365
1761235845550611000,2.90161083984375,0.124921940267086,-0.0328340083360672,0.0876591652631759
1761235845568652500,2.919652587890625,0.0717766657471656,-0.1043052375316619,0.0010690141934901
1761235845586689500,2.937689453125,0.022754730656743,-0.1470658034086227,-0.0514653958380222
1761235845604728300,2.955728271484375,-0.0280998013913631,-0.167377084493637,-0.0662788823246955
1761235845622767000,2.97376708984375,-0.0933096632361412,-0.2611449062824249,-0.1038470938801765
1761235845640806000,2.991805908203125,-0.1449277848005294,-0.3171917796134949,-0.1568396538496017
1761235845658845000,3.009844970703125,-0.2089159190654754,-0.3298672437667846,-0.1689042448997497
1761235845676883700,3.0278837890625,-0.2887865304946899,-0.3341432809829712,-0.1259909570217132
1761235845694922500,3.045922607421875,-0.36529740691185,-0.3109304010868072,-0.058184914290905
1761235845712961000,3.0639609375,-0.4057672321796417,-0.2611449062824249,0.0001527163112768
1761235845731000000,3.082,-0.4027129113674164,-0.192422553896904,0.0536034256219863
1761235845749038600,3.10003857421875,-0.3933972120285034,-0.1055269688367843,0.1090394482016563
1761235845767077000,3.1180771484375,-0.3784310221672058,-0.0378736443817615,0.1696678251028061
1761235845785116000,3.136115966796875,-0.3242167234420776,0.0375682115554809,0.2525927722454071
1761235845803155200,3.1541552734375,-0.2267837226390838,0.0549778714776039,0.2715296149253845
1761235845821198300,3.1721982421875,-0.1728748679161071,-0.0752891451120376,0.1685988008975982
1761235845839232300,3.190232177734375,-0.2202169150114059,-0.266642689704895,-0.0600175112485885
1761235845857271000,3.20827099609375,-0.4283692538738251,-0.5262604355812073,-0.3419318199157715
1761235845875309800,3.226309814453125,-0.7064656615257263,-0.6898195743560791,-0.49464812874794
1761235845893348400,3.244348388671875,-0.9240863919258118,-0.5833762884140015,-0.3869831264019012
1761235845911387100,3.26238720703125,-0.999680995941162,-0.2507601976394653,-0.0772744566202163
1761235845929425400,3.28042529296875,-0.8393288254737854,0.1246165111660957,0.2782491147518158
1761235845947465500,3.298465576171875,-0.5345070958137512,0.4017966091632843,0.4949535727500915
1761235845965500200,3.316500244140625,-0.2235766798257827,0.4149302244186401,0.5532912015914917
1761235845983530200,3.3345302734375,0.0207694191485643,0.1832595765590667,0.5713117122650146
1761235846001582800,3.352582763671875,0.130725160241127,-0.1175915598869323,0.5204572081565857
1761235846019619600,3.37061962890625,0.1148426681756973,-0.3315471112728119,0.3782783150672912
1761235846037658600,3.38865869140625,-0.0491746515035629,-0.4396702647209167,0.0920879393815994
1761235846055697200,3.406697265625,-0.3019201457500458,-0.3868304193019867,-0.2777909636497497
1761235846073736000,3.42473583984375,-0.5129740834236145,-0.0897971913218498,-0.5053382515907288
1761235846091774500,3.4427744140625,-0.5490151643753052,0.2247984111309051,-0.5769622325897217
1761235846109813500,3.4608134765625,-0.4065308272838592,0.3698789179325104,-0.5274821519851685
1761235846127852000,3.47885205078125,-0.1841758787631988,0.3926336467266083,-0.3697261810302734
1761235846145891000,3.49689111328125,0.0638354197144508,0.3361285924911499,-0.1945605874061584
1761235846163926300,3.51492626953125,0.2528982162475586,0.2356412708759308,-0.0905607715249061
1761235846181968600,3.53296875,0.3089450895786285,0.1572978049516677,-0.01328631862998
1761235846200007400,3.55100732421875,0.2449569702148437,0.1452332139015197,0.0004581489483825
1761235846218046000,3.5690458984375,0.1293507218360901,0.2018909603357315,-0.0345138870179653
1761235846236084700,3.587084716796875,0.0201585534960031,0.2365575730800628,-0.1157589629292488
1761235846254118400,3.605118408203125,-0.0403171069920063,0.2176207453012466,-0.235030397772789
1761235846272162000,3.623162109375,-0.0218384321779012,0.2009746730327606,-0.3123048543930053
1761235846290200800,3.641200927734375,0.0478002056479454,0.1953241676092147,-0.3271183371543884
1761235846308240000,3.659239990234375,0.1401935666799545,0.2009746730327606,-0.2796235680580139
1761235846326278400,3.6772783203125,0.233655959367752,0.1821905523538589,-0.2038762718439102
1761235846344317200,3.695317138671875,0.323605865240097,0.1689042448997497,-0.1104138940572738
1761235846362355700,3.713355712890625,0.3637702465057373,0.1463022232055664,-0.0507018156349659
1761235846380395000,3.73139501953125,0.361632227897644,0.1394299864768982,-0.0441350154578685
1761235846398433500,3.74943359375,0.3405573666095733,0.1429424732923507,-0.0280998013913631
1761235846416472300,3.767472412109375,0.3225368559360504,0.133015900850296,0.0003054326225537
1761235846434510600,3.785510498046875,0.2950479090213775,0.1247692257165908,0.0415388382971286
1761235846452549400,3.80354931640625,0.251676470041275,0.140499010682106,0.0849102661013603
1761235846470588400,3.82158837890625,0.223423957824707,0.1382082551717758,0.1391245573759079
1761235846488620500,3.83962060546875,0.2388483136892318,0.1441642045974731,0.1695151031017303
1761235846506666200,3.857666259765625,0.3080287873744964,0.1498146951198578,0.1663080602884292
1761235846524704800,3.875704833984375,0.4230241775512695,0.223423957824707,0.1614211350679397
1761235846542743300,3.893743408203125,0.5448917746543884,0.2790127098560333,0.1776090711355209
1761235846560782000,3.911781982421875,0.6090326309204102,0.1873829066753387,0.1394299864768982
1761235846578820900,3.92982080078125,0.5398521423339844,-0.0097738439217209,0.0175623763352632
1761235846596860000,3.94785986328125,0.2817615866661072,-0.1597412675619125,-0.1314887404441833
1761235846614898200,3.965898193359375,-0.0261144898831844,-0.233197808265686,-0.1954768747091293
1761235846632937000,3.98393701171875,-0.2054034322500229,-0.1667662113904953,-0.0986547395586967
1761235846650973200,4.00197314453125,-0.1516472995281219,0.0842994004487991,0.2186897546052932
1761235846669014800,4.020014892578125,0.1078177168965339,0.3891211748123169,0.5664247870445251
1761235846687053000,4.038052978515625,0.4358523488044739,0.5674937963485718,0.7281513810157776
1761235846705092400,4.05609228515625,0.6540839672088623,0.4908302128314972,0.6568328738212585
1761235846723130400,4.07413037109375,0.6577491760253906,0.1876883506774902,0.3779728710651397
1761235846741169400,4.09216943359375,0.4459316432476043,-0.1056796908378601,0.0158824957907199
1761235846759208000,4.1102080078125,0.1461495161056518,-0.342237263917923,-0.3006984293460846
1761235846777247200,4.128247314453125,-0.0981965884566307,-0.389884740114212,-0.4213443100452423
1761235846795286000,4.1462861328125,-0.2849686443805694,-0.204945296049118,-0.3459024429321289
1761235846813324000,4.164323974609375,-0.3457497358322143,0.1070541366934776,-0.1991420686244964
1761235846831363000,4.182363037109375,-0.2302961945533752,0.3452915847301483,-0.1067487001419067
1761235846849401300,4.2004013671875,0.0479529201984405,0.3978259861469269,-0.0641408488154411
1761235846867441000,4.21844091796875,0.3726277947425842,0.37079519033432,0.0363464802503585
1761235846885477600,4.2364775390625,0.6047565937042236,0.2629774808883667,0.1467603743076324
1761235846903520000,4.25452001953125,0.6782131195068359,0.1809688359498977,0.2229658216238021
1761235846921556700,4.272556640625,0.6236934065818787,0.0910189226269722,0.19288070499897
1761235846939595300,4.29059521484375,0.5143485069274902,0.0146607663482427,0.0759000033140182
1761235846957634000,4.308634033203125,0.3862195611000061,-0.0731511116027832,-0.0870482996106147
1761235846975673000,4.326673095703125,0.2487748712301254,-0.1731802970170974,-0.2422080636024475
1761235846993711900,4.3447119140625,0.1258382350206375,-0.2742784917354584,-0.3451388776302337
1761235847011750700,4.362750732421875,0.0386372283101081,-0.3640756905078888,-0.3674354553222656
1761235847029787600,4.38078759765625,-0.0273362193256616,-0.4289801120758056,-0.3463605940341949
1761235847047829500,4.39882958984375,-0.1067487001419067,-0.4647157490253448,-0.3058907687664032
1761235847065867000,4.416866943359375,-0.1982257664203643,-0.4482223689556122,-0.2474004179239273
1761235847083901400,4.4349013671875,-0.2727513313293457,-0.3906483352184295,-0.1689042448997497
1761235847101944600,4.452944580078125,-0.3216205537319183,-0.3824016451835632,-0.105221539735794
1761235847119982800,4.47098291015625,-0.3663664162158966,-0.4132503271102905,-0.064446285367012
1761235847138022000,4.48902197265625,-0.4236350357532501,-0.4280638098716736,-0.0766635909676551
1761235847156054800,4.5070546875,-0.4728097021579742,-0.2893974184989929,-0.0751364231109619
1761235847174099200,4.52509912109375,-0.4555527567863464,0.0381790772080421,-0.0030543261673301
1761235847192137700,4.5431376953125,-0.3297145068645477,0.4477642178535461,0.1346957832574844
1761235847210176300,4.56117626953125,-0.105221539735794,0.7652614116668701,0.1994474977254867
1761235847228215300,4.57921533203125,0.0986547395586967,0.6998988389968872,0.0676533281803131
1761235847246254600,4.597254638671875,0.1485929638147354,0.1991420686244964,-0.2367102801799774
1761235847264292400,4.615292236328125,-0.0398589558899402,-0.413555771112442,-0.5111414790153503
1761235847282331600,4.63333154296875,-0.4285219609737396,-0.918588638305664,-0.6776022911071777
1761235847300370400,4.651370361328125,-0.7979426980018616,-1.020297646522522,-0.6319400668144226
1761235847318403000,4.669403076171875,-0.9897544384002686,-0.6922630667686462,-0.2567161321640014
1761235847336447500,4.687447509765625,-0.8768970370292664,-0.1420261710882187,0.2293798923492431
1761235847354486500,4.705486572265625,-0.4838052690029144,0.2325869351625442,0.5789475440979004
1761235847372525300,4.723525390625,-0.0511599630117416,0.4065308272838592,0.7287622094154358
1761235847390563600,4.7415634765625,0.2641992270946502,0.356439858675003,0.7631233930587769
1761235847408602400,4.759602294921875,0.4437935948371887,0.1551597714424133,0.7484626173973083
1761235847426641200,4.77764111328125,0.4159992337226867,-0.1010981947183609,0.6588181853294373
1761235847444679000,4.795678955078125,0.2223549485206604,-0.3089450895786285,0.4378376603126526
1761235847462720800,4.813720703125,-0.0561996027827262,-0.3932445049285888,0.1314887404441833
1761235847480757500,4.831757568359375,-0.3452915847301483,-0.3017674386501312,-0.1400408595800399
1761235847498796500,4.849796630859375,-0.5190827250480652,-0.1304197311401367,-0.2148718535900116
1761235847516835000,4.8678349609375,-0.5314527750015259,-0.0187841057777404,-0.1588249653577804
1761235847534873900,4.885873779296875,-0.4147774875164032,0.0299323964864015,-0.0897971913218498
1761235847552911600,4.90391162109375,-0.2287690341472625,-0.0045814891345798,-0.0193949714303016
1761235847570952000,4.921951904296875,-0.0616973899304866,-0.0542142912745475,0.0832303911447525
1761235847588989700,4.93998974609375,0.0183259565383195,-0.0256563406437635,0.2002110779285431
1761235847607028500,4.958028564453125,-0.0267253536731004,0.0193949714303016,0.266184538602829
1761235847625067300,4.9760673828125,-0.1440114825963974,0.0551305897533893,0.2345722615718841
1761235847643106300,4.994106201171875,-0.2590068578720093,0.0688750594854354,0.1379028260707855
1761235847661145000,5.01214501953125,-0.3199406862258911,0.0568104684352874,0.0145080499351024
1761235847679184000,5.030183837890625,-0.3147483170032501,0.0507018156349659,-0.072998397052288
1761235847697223000,5.048222900390625,-0.2938261926174164,0.0856738537549972,-0.1258382350206375
1761235847715260200,5.06626025390625,-0.2828305959701538,0.1603521257638931,-0.1434006094932556
1761235847733300500,5.084300537109375,-0.2689334154129028,0.2927571833133697,-0.156686931848526
1761235847751339300,5.10233935546875,-0.2290744632482528,0.3338378667831421,-0.1798998117446899
1761235847769376000,5.1203759765625,-0.1879937797784805,0.2973386645317077,-0.183565005660057
1761235847787416300,5.138416259765625,-0.2525927722454071,0.2069306075572967,-0.1542434692382812
1761235847805454600,5.15645458984375,-0.3882048726081848,0.1704314053058624,-0.0949895456433296
1761235847823481600,5.174481689453125,-0.4350887835025787,0.143247902393341,-0.0844521224498748
1761235847841532400,5.192532470703125,-0.4016439020633697,0.1389718502759933,-0.0844521224498748
1761235847859571000,5.210571044921875,-0.3552181422710418,0.051312681287527,-0.0977384373545646
1761235847877609700,5.228609619140625,-0.337044894695282,-0.0774271711707115,-0.1223257631063461
1761235847895648500,5.2466484375,-0.3378084897994995,-0.1264491081237793,-0.0500909499824047
1761235847913687000,5.26468701171875,-0.2729040384292602,-0.0740674138069152,0.1554652005434036
1761235847931726000,5.28272607421875,-0.0809396430850029,0.1197295859456062,0.4164573848247528
1761235847949764400,5.300764404296875,0.2240348309278488,0.2933680415153503,0.5778785347938538
1761235847967803100,5.31880322265625,0.4683809280395508,0.3251330256462097,0.5151121020317078
1761235847985841200,5.336841064453125,0.499382346868515,0.183106854557991,0.2011273801326751
1761235848003877400,5.35487744140625,0.2768746614456177,-0.1259909570217132,-0.2842050492763519
1761235848021919500,5.37291943359375,-0.0591012127697467,-0.2356412708759308,-0.5732970237731934
1761235848039958300,5.390958251953125,-0.2273945808410644,-0.0102319931611418,-0.4576907753944397
1761235848057996800,5.408996826171875,-0.1316414624452591,0.3442225754261017,0.0421497002243995
1761235848076035300,5.427035400390625,0.0971275717020034,0.5389358401298523,0.5887213945388794
1761235848094074000,5.44507421875,0.2698497176170349,0.5326744914054871,0.8732318878173828
1761235848112113200,5.463113037109375,0.3776674270629883,0.3547599911689758,0.8243626356124878
1761235848130151700,5.481151611328125,0.3836233615875244,0.1716531366109848,0.5407684445381165
1761235848148190500,5.4991904296875,0.2779437005519867,-0.0650571510195732,0.0930042341351509
1761235848166229200,5.517229248046875,0.0905607715249061,-0.2596177160739898,-0.3927863538265228
1761235848184268300,5.535268310546875,-0.0549778714776039,-0.2318233549594879,-0.6669121384620667
1761235848202306800,5.553306884765625,-0.1374446749687194,-0.0711658000946044,-0.6728680729866028
1761235848220343800,5.57134375,-0.1377501189708709,0.1223257631063461,-0.4448626041412353
1761235848238385400,5.589385498046875,-0.0653625801205635,0.1696678251028061,-0.2032654136419296
1761235848256422400,5.60742236328125,0.076052725315094,0.0849102661013603,-0.087353728711605
1761235848274461200,5.625461181640625,0.2451096773147583,-0.00167987938039,-0.0003054326225537
1761235848292500200,5.643500244140625,0.4069889783859253,-0.0363464802503585,0.0777326002717018
1761235848310539300,5.661539306640625,0.4735732674598694,-0.0569631829857826,0.0971275717020034
1761235848328577500,5.67957763671875,0.4198171496391296,-0.0818559452891349,0.0740674138069152
1761235848346616600,5.697616455078125,0.3462078869342804,-0.1050688251852989,0.057115901261568
1761235848364655400,5.7156552734375,0.2849686443805694,-0.1624901592731475,0.02122756652534
1761235848382693600,5.733693603515625,0.2057088762521743,-0.2060143053531646,-0.0258090570569038
1761235848400733200,5.751733154296875,0.1267545372247696,-0.2561052441596985,-0.1041525229811668
1761235848418770200,5.769770263671875,0.0742201283574104,-0.2672535479068756,-0.1583668142557144
1761235848436811000,5.78781103515625,0.0241291765123605,-0.2825251817703247,-0.1690569519996643
1761235848454848500,5.8058486328125,-0.0282525178045034,-0.3289509415626526,-0.1698205322027206
1761235848472873700,5.823873779296875,-0.0888808965682983,-0.3793473243713379,-0.1565342247486114
1761235848490914300,5.841914306640625,-0.1941024363040924,-0.417679101228714,-0.1366810947656631
1761235848508964900,5.85996484375,-0.3016147017478943,-0.461814135313034,-0.155312493443489
1761235848527003600,5.878003662109375,-0.3675881624221802,-0.4778493344783783,-0.2463314086198806
1761235848545042400,5.89604248046875,-0.3677408695220947,-0.3865249752998352,-0.3312416672706604
1761235848563081200,5.914081298828125,-0.3637702465057373,-0.2724458873271942,-0.347735047340393
1761235848581119000,5.932118896484375,-0.3326161205768585,-0.1287398487329483,-0.2150245606899261
1761235848599159600,5.95015966796875,-0.2455678284168243,0.0693332031369209,0.0865901485085487
1761235848617197300,5.968197265625,-0.1382082551717758,0.1690569519996643,0.3239113092422485
1761235848635235600,5.986235595703125,-0.1269072592258453,-0.0390953756868839,0.2318233549594879
1761235848653256000,6.004255859375,-0.2335032373666763,-0.3139847218990326,-0.0916297882795333
1761235848671313400,6.0223134765625,-0.3875939846038818,-0.3956879675388336,-0.3359758853912353
1761235848689350700,6.0403505859375,-0.4572326242923736,-0.2405281960964203,-0.3373503386974334
1761235848707392300,6.058392333984375,-0.4334088861942291,0.00335975876078,-0.1091921627521514
1761235848725429800,6.0764296875,-0.3332269787788391,0.1832595765590667,0.2112066596746444
1761235848743468000,6.094468017578125,-0.2386955916881561,0.2179261744022369,0.4961752891540527
1761235848761506800,6.1125068359375,-0.1314887404441833,0.1695151031017303,0.6954700946807861
1761235848779546000,6.130546142578125,0.0091629782691597,0.1091921627521514,0.8210029006004333
1761235848797584600,6.148584716796875,0.1354593634605407,0.1039998084306716,0.8486445546150208
1761235848815623200,6.166623046875,0.2203696370124817,0.0777326002717018,0.7686212062835693
1761235848833661700,6.18466162109375,0.2480112910270691,-0.0488692186772823,0.5422956347465515
1761235848851700700,6.20270068359375,0.1950187236070633,-0.2058615833520889,0.1524108797311782
1761235848869738800,6.22073876953125,0.0074830991216003,-0.4379903674125671,-0.380721777677536
1761235848887776800,6.23877685546875,-0.3367394804954529,-0.5112941861152649,-0.8295549750328064
1761235848905818000,6.256818115234375,-0.6137668490409851,-0.2611449062824249,-0.9941831827163696
1761235848923851500,6.2748515625,-0.6203336715698242,0.0598647929728031,-0.860556423664093
1761235848941894000,6.292893798828125,-0.4143193662166595,0.2344195395708084,-0.5627595782279968
1761235848959932700,6.3109326171875,-0.1386664062738418,0.1800525337457656,-0.2796235680580139
1761235848977971700,6.3289716796875,0.0997237488627433,-0.0294742472469806,-0.0705549344420433
1761235848996010500,6.347010498046875,0.181274265050888,-0.1458440721035003,0.066737025976181
1761235849014049300,6.36504931640625,0.1067487001419067,-0.1035416573286056,0.1217148974537849
1761235849032086000,6.3830859375,0.0094684110954403,0.0406225398182868,0.0833831056952476
1761235849059056600,6.410056640625,-0.1348485052585601,0.1936442852020263,-0.0539088584482669
1761235849077183000,6.428182861328125,-0.2134974002838134,0.2223549485206604,-0.0899499058723449
1761235849095222300,6.44622216796875,-0.2483167201280594,0.2703078687191009,-0.0981965884566307
1761235849113253400,6.46425341796875,-0.2162462919950485,0.3355177342891693,-0.1255328059196472
1761235849131299300,6.48229931640625,-0.1414152979850769,0.34162637591362,-0.142789751291275
1761235849149337900,6.500337890625,-0.0517708286643028,0.2696970105171203,-0.1146899461746215
1761235849167374600,6.51837451171875,0.0390953756868839,0.1464549452066421,-0.0394008085131645
1761235849185416000,6.536416015625,0.1217148974537849,0.0310014113783836,0.0397062413394451
1761235849203443000,6.55444287109375,0.18539759516716,-0.0157297793775796,0.0476474873721599
1761235849221493000,6.572492919921875,0.2040289938449859,-0.0357356183230876,-0.0238237436860799
1761235849239535000,6.59053515625,0.1870774775743484,-0.0650571510195732,-0.1209513172507286
1761235849257569500,6.608569580078125,0.140499010682106,-0.0766635909676551,-0.1792889535427093
1761235849275609300,6.626609375,0.1049161031842231,-0.0134390350431203,-0.116827979683876
1761235849293632300,6.64463232421875,0.1863138973712921,0.1867720484733581,0.08460483700037
1761235849311686100,6.66268603515625,0.3785837292671203,0.4257730841636657,0.3724750876426697
1761235849329725400,6.680725341796875,0.5198463201522827,0.6007859706878662,0.5445863604545593
1761235849347764500,6.698764404296875,0.5952881574630737,0.7049384713172913,0.4077525436878204
1761235849365802200,6.71680224609375,0.4749477207660675,0.4633412957191467,-0.0554360225796699
1761235849383842300,6.73484228515625,0.1291979998350143,0.0983493030071258,-0.5294674634933472
1761235849410995500,6.761995361328125,-0.223423957824707,0.1618792861700058,-0.1238529309630394
1761235849428936200,6.779936279296875,-0.1962404549121856,0.266031801700592,0.3627012372016907
1761235849446979800,6.797979736328125,-0.1146899461746215,0.2237294018268585,0.7281513810157776
1761235849465017900,6.816017822265625,0.034972034394741,0.2744311988353729,0.8988882303237915
1761235849483055600,6.8340556640625,0.2266310006380081,0.3604104816913605,0.9083566069602966
1761235849501091300,6.85209130859375,0.3851505517959595,0.3597996234893799,0.8020660877227783
1761235849519135700,6.8701357421875,0.4434881806373596,0.2611449062824249,0.6513350605964661
1761235849537172000,6.888171875,0.408363401889801,0.0995710343122482,0.4902193546295166
1761235849555207700,6.906207763671875,0.3271183371543884,-0.1640173196792602,0.3173444867134094
1761235849573251300,6.924251220703125,0.2075414657592773,-0.4175263941287994,0.1101084575057029
1761235849591287300,6.942287353515625,0.1464549452066421,-0.4247040748596191,0.0395535230636596
1761235849609323500,6.960323486328125,0.0804814994335174,-0.3410155177116394,0.0975857228040695
1761235849627359500,6.978359375,-0.0201585534960031,-0.3280346393585205,0.0522289797663688
1761235849645404000,6.99640380859375,-0.0558941699564456,-0.3170390725135803,-0.1583668142557144
1761235849663442700,7.014442626953125,-0.0368046313524246,-0.2840523421764374,-0.437684953212738
1761235849681481700,7.032481689453125,0.0009162978967651,-0.2437352389097213,-0.6111706495285034
1761235849699520000,7.05052001953125,0.0319177098572254,-0.1574505120515823,-0.5855143666267395
1761235849717559000,7.06855908203125,0.1101084575057029,-0.056657750159502,-0.357508897781372
1761235849735597600,7.08659765625,0.1834122836589813,-0.0138971842825412,-0.0661261603236198
1761235849753636000,7.104635986328125,0.1606575548648834,-0.048105638474226,0.1064432710409164
1761235849771673900,7.122673828125,0.1492038369178772,-0.1408044397830963,0.1061378344893455
1761235849789714000,7.1407138671875,0.1511891484260559,-0.2561052441596985,-0.0076358155347406
1761235849807752200,7.158752197265625,0.1139263659715652,-0.2710714638233185,-0.1395827084779739
1761235849825791200,7.176791259765625,0.0432187169790267,-0.218842476606369,-0.1780672222375869
1761235849843829500,7.19482958984375,-0.0436768643558025,-0.1957823038101196,-0.1882992088794708
1761235849861868000,7.212867919921875,-0.1212567538022995,-0.2009746730327606,-0.2087631970643997
1761235849879907300,7.2309072265625,-0.2116648107767105,-0.2162462919950485,-0.2272418737411499
1761235849897945300,7.2489453125,-0.2889392673969269,-0.1513418704271316,-0.1592831164598465
1761235849915984400,7.266984375,-0.3167336285114288,-0.1098030284047126,-0.0300851128995418
1761235849934023400,7.2850234375,-0.3090978264808655,-0.0875064432621002,0.0479529201984405
1761235849952062000,7.30306201171875,-0.3173444867134094,-0.096211276948452,-0.0183259565383195
1761235849970100500,7.3211005859375,-0.3613267838954925,-0.1348485052585601,-0.081092357635498
1761235849988139500,7.339139404296875,-0.3941608071327209,-0.1188132911920547,-0.0731511116027832
1761235850006174700,7.3571748046875,-0.3860668241977691,-0.1421788930892944,0.0542142912745475
1761235850024216800,7.375216796875,-0.3359758853912353,-0.0986547395586967,0.275805652141571
1761235850042255400,7.39325537109375,-0.252745509147644,0.0719293802976608,0.4977024495601654
1761235850060294000,7.4112939453125,-0.235946699976921,0.0554360225796699,0.5787948369979858
1761235850078332700,7.429332763671875,-0.3217732608318329,-0.2055561542510986,0.3981314301490783
1761235850096366800,7.447366943359375,-0.4622722864151001,-0.3788891732692718,0.0769690200686454
1761235850114410200,7.46541015625,-0.5459607839584351,-0.3301726579666137,-0.182648703455925
1761235850132448800,7.48344873046875,-0.5442809462547302,-0.1270599663257599,-0.2194533348083496
1761235850150487600,7.501487548828125,-0.4804455041885376,0.1395827084779739,-0.0650571510195732
1761235850168526300,7.5195263671875,-0.3506366610527038,0.1959350258111953,0.2519819140434265
1761235850186564400,7.537564453125,-0.2252565622329712,0.0636827051639556,0.556345522403717
1761235850204600300,7.555600341796875,-0.1130100712180137,-0.1000291854143142,0.7733554244041443
1761235850222647300,7.573647216796875,-0.0462730415165424,-0.1771509200334549,0.8521569967269897
1761235850240681000,7.591680908203125,-0.0558941699564456,-0.1357648074626922,0.7574729323387146
1761235850258719500,7.609719482421875,-0.1293507218360901,-0.0829249545931816,0.545655369758606
1761235850276758300,7.62775830078125,-0.2264782935380935,-0.0552833043038845,0.2539672255516052
1761235850294781000,7.645781005859375,-0.3237585723400116,-0.1007927656173706,-0.1149953827261924
1761235850312836000,7.663836181640625,-0.4034765064716339,-0.0867428630590438,-0.4586070775985718
1761235850330874400,7.681874267578125,-0.3927863538265228,0.0342084541916847,-0.6137668490409851
1761235850348913400,7.699913330078125,-0.295353353023529,0.1615738570690155,-0.5619960427284241
1761235850366952000,7.717951904296875,-0.1542434692382812,0.1718058437108993,-0.3527746796607971
1761235850384991000,7.735990966796875,-0.0230601634830236,0.1154535338282585,-0.0977384373545646
1761235850403029800,7.75402978515625,0.1185078546404838,0.030695978552103,0.0821613743901252
1761235850421068000,7.772068115234375,0.2083050459623336,-0.0039706239476799,0.1324050426483154
1761235850439107000,7.790107177734375,0.2159408628940582,0.0577267669141292,0.0652098655700683
1761235850457145300,7.808145263671875,0.1829541474580764,0.1539380401372909,-0.0615446716547012
1761235850475184000,7.82618408203125,0.1718058437108993,0.2926044464111328,-0.206777885556221
1761235850493222700,7.84422265625,0.2145664244890213,0.3590360581874847,-0.2982549667358398
1761235850511261700,7.86226171875,0.2246456891298294,0.598647952079773,-0.1036943718791008
1761235850529300200,7.88030029296875,0.0406225398182868,-0.0639881342649459,-0.0772744566202163
1761235850547339000,7.898339111328125,0.0699440687894821,-0.1073595657944679,-0.2993239760398865
1761235850565377500,7.91637744140625,0.1337794959545135,0.2813034355640411,-0.3891211748123169
1761235850583416600,7.93441650390625,0.1925752758979797,0.5710062980651855,-0.305127203464508
1761235850601455400,7.952455322265625,0.3376557528972626,0.3266601860523224,-0.0178678091615438
1761235857593758700,0.0917587890625,-0.0529925599694252,-0.1803579628467559,-0.1953241676092147
1761235857611727400,0.109727294921875,-0.0978911519050598,-0.1994474977254867,-0.2003637999296188
1761235857629778400,0.1277783203125,-0.1365283876657486,-0.1032362282276153,-0.2171625941991806
1761235857647815700,0.145815673828125,-0.1649336218833923,-0.0797179117798805,-0.3043636083602905
1761235857665854200,0.163854248046875,-0.1745547503232956,-0.0549778714776039,-0.3674354553222656
1761235857683890200,0.18189013671875,-0.1572978049516677,-0.0389426611363887,-0.4057672321796417
1761235857701919700,0.199919677734375,-0.1316414624452591,-0.0803287774324417,-0.451123982667923
1761235857719970300,0.21797021484375,-0.1059851199388504,-0.1140790879726409,-0.4778493344783783
1761235857738008800,0.2360087890625,-0.0421497002243995,-0.1038470938801765,-0.4657847583293915
1761235857756049000,0.254048828125,0.0383317954838275,-0.104763388633728,-0.4480696618556976
1761235857774081500,0.27208154296875,0.1243110746145248,-0.1189660057425499,-0.4491386711597442
1761235857792123400,0.290123291015625,0.2235766798257827,-0.1197295859456062,-0.528245747089386
1761235857810164700,0.308164794921875,0.3509420752525329,-0.0959058403968811,-0.716697633266449
1761235857828203300,0.326203369140625,0.460897833108902,-0.1797471046447754,-0.9010262489318848
1761235857846240500,0.344240478515625,0.5682573914527893,-0.2701551616191864,-0.8286387324333191
1761235857864270300,0.362270263671875,0.7284567952156067,-0.2319760769605636,-0.570242702960968
1761235857882318000,0.380318115234375,0.9024006724357604,-0.1020144969224929,-0.3956879675388336
1761235857900357600,0.398357666015625,0.9947940707206726,-0.0710130855441093,-0.4370740950107574
1761235857918395400,0.4163955078125,1.0053315162658691,-0.0552833043038845,-0.5062545537948608
1761235857936434000,0.434433837890625,0.9450085163116456,-0.0291688162833452,-0.5161811113357544
1761235857954472200,0.45247216796875,0.8316930532455444,-0.076052725315094,-0.4776966273784637
1761235857972512000,0.470511962890625,0.717613935470581,-0.1528690308332443,-0.3413209617137909
1761235857990550000,0.488550048828125,0.6551529765129089,-0.1850921660661697,-0.2060143053531646
1761235858008588300,0.50658837890625,0.5868887901306152,-0.1895209401845932,-0.1982257664203643
1761235858026627300,0.52462744140625,0.4999932050704956,-0.2612976133823395,-0.2296853363513946
1761235858044667100,0.542667236328125,0.4077525436878204,-0.384845107793808,-0.2050980031490326
1761235858062704000,0.5607041015625,0.3532328307628631,-0.5166392922401428,-0.1209513172507286
1761235858080743200,0.5787431640625,0.2973386645317077,-0.5575672388076782,0.0029016099870204
1761235858098782200,0.5967822265625,0.2206750661134719,-0.5835290551185608,0.1192714422941207
1761235858116821500,0.614821533203125,0.1524108797311782,-0.5600107312202454,0.2261728644371032
1761235858134858800,0.632858642578125,0.0913243517279625,-0.5125159621238708,0.30925053358078
1761235858152897500,0.6508974609375,0.0641408488154411,-0.4778493344783783,0.3362813293933868
1761235858170936000,0.66893603515625,0.0561996027827262,-0.4201225638389587,0.3116939961910248
1761235858188976400,0.686976318359375,0.027030786499381,-0.3488040566444397,0.2744311988353729
1761235858207013400,0.705013427734375,0.0061086523346602,-0.3101668357849121,0.2283108830451965
1761235858225052400,0.723052490234375,-0.0155770638957619,-0.2756529450416565,0.2241875380277633
1761235858243091000,0.741091064453125,-0.0479529201984405,-0.1621847152709961,0.2721404731273651
1761235858261130800,0.759130859375,-0.0784961804747581,-0.0184786729514598,0.28557950258255
1761235858279168000,0.77716796875,-0.1447750627994537,0.042302418500185,0.2371684312820434
1761235858297207300,0.795207275390625,-0.2109012305736541,0.0482583530247211,0.2293798923492431
1761235858315245300,0.813245361328125,-0.2504547536373138,0.056657750159502,0.2625193297863006
1761235858333285000,0.83128515625,-0.2591595947742462,0.0468839071691036,0.2826778888702392
1761235858351322600,0.849322509765625,-0.2422080636024475,-0.0719293802976608,0.2014328092336654
1761235858369360400,0.8673603515625,-0.2344195395708084,-0.3610213696956634,0.0835358202457428
1761235858387400700,0.885400634765625,-0.2641992270946502,-0.5105306506156921,0.105221539735794
1761235858405439700,0.903439697265625,-0.2799290120601654,-0.4193589985370636,0.1832595765590667
1761235858423477200,0.921477294921875,-0.2652682363986969,-0.2507601976394653,0.1991420686244964
1761235858441514800,0.9395146484375,-0.2464841306209564,-0.223423957824707,0.1175915598869323
1761235858459554800,0.957554931640625,-0.235946699976921,-0.3433062732219696,0.0209221355617046
1761235858477595400,0.975595458984375,-0.2306016236543655,-0.4999932050704956,0.0316122770309448
1761235858495632000,0.9936318359375,-0.2360994219779968,-0.4512766897678375,0.168751522898674
1761235858513670100,1.011670166015625,-0.166918933391571,-0.1533271819353103,0.2701551616191864
1761235858531711500,1.02971142578125,-0.042302418500185,0.3011565804481506,0.2432770878076553
1761235858549748500,1.04774853515625,0.0835358202457428,0.6934847831726074,0.1154535338282585
1761235858567780400,1.0657802734375,0.1444696336984634,0.917061448097229,-0.0009162978967651
1761235858585825000,1.083824951171875,0.1568396538496017,1.0213667154312134,-0.0768163055181503
1761235858603860200,1.101860107421875,0.1814269721508026,1.0067058801651,-0.1157589629292488
1761235858621903400,1.1199033203125,0.2376265823841095,0.9676105380058287,-0.0797179117798805
1761235858639940600,1.137940673828125,0.2577851414680481,0.9179777503013612,-0.0419969856739044
1761235858657979600,1.155979736328125,0.2422080636024475,0.8162686824798584,-0.0390953756868839
1761235858676018200,1.17401806640625,0.2070833146572113,0.7379252314567566,-0.0539088584482669
1761235858694058000,1.19205810546875,0.1617265790700912,0.6951646208763123,-0.1401935666799545
1761235858712095200,1.21009521484375,0.1160643994808197,0.6081163287162781,-0.3530801236629486
1761235858730133800,1.2281337890625,0.0902553424239158,0.4356996417045593,-0.5664247870445251
1761235858748172800,1.2461728515625,0.1043052375316619,0.2793181240558624,-0.5928447246551514
1761235858766212600,1.264212646484375,0.1533271819353103,0.1351539343595504,-0.4431827366352081
1761235858784249900,1.282249755859375,0.2296853363513946,0.0175623763352632,-0.2460259795188903
1761235858802288000,1.3002880859375,0.342237263917923,0.0238237436860799,-0.0444404482841491
1761235858820327000,1.318326904296875,0.46547931432724,0.039248090237379,0.0833831056952476
1761235858838366500,1.336366455078125,0.540921151638031,0.0288633834570646,0.1382082551717758
1761235858856404700,1.35440478515625,0.5232060551643372,0.0743728429079055,0.1516472995281219
1761235858874443000,1.372443115234375,0.4760167300701141,0.0997237488627433,0.1392772793769836
1761235858892481800,1.390481689453125,0.4092797040939331,0.0836885422468185,0.1372919678688049
1761235858910521300,1.408521240234375,0.3205515444278717,0.0861319974064827,0.1777617931365966
1761235858928558600,1.42655859375,0.2664899528026581,0.1896736621856689,0.2133446931838989
1761235858946598000,1.444597900390625,0.20906862616539,0.2495384514331817,0.1550070494413375
1761235858964636200,1.46263623046875,0.1302670091390609,0.1986839175224304,0.0158824957907199
1761235858982675700,1.48067578125,0.0351247526705265,0.1499674171209335,-0.1539380401372909
1761235859000713200,1.498713134765625,-0.0540615729987621,0.147829383611679,-0.3065016269683838
1761235859018751700,1.516751708984375,-0.122631199657917,0.2385428845882415,-0.4437935948371887
1761235859036790500,1.53479052734375,-0.1041525229811668,0.3301726579666137,-0.5769622325897217
1761235859054830300,1.552830322265625,0.0068722339347004,0.2886338233947754,-0.588874101638794
1761235859072867800,1.570867919921875,0.1328631937503814,0.1447750627994537,-0.4173736870288849
1761235859090907000,1.588906982421875,0.2153300046920776,0.2440406680107116,-0.1747074574232101
1761235859108945200,1.606945068359375,0.2011273801326751,0.2883284091949463,-0.1511891484260559
1761235859126984400,1.624984375,0.1023199260234832,-0.0236710291355848,-0.4353941977024078
1761235859145022500,1.6430224609375,-0.1371392458677292,-0.2593123018741607,-0.6879869699478149
1761235859163061000,1.66106103515625,-0.3778201639652252,-0.1482875347137451,-0.7429648637771606
1761235859181099500,1.679099609375,-0.4738787114620209,0.2079996168613433,-0.5942191481590271
1761235859199139000,1.69713916015625,-0.5120577812194824,0.5114469528198242,-0.3753767013549804
1761235859217176800,1.7151767578125,-0.4792237877845764,0.588263213634491,-0.1498146951198578
1761235859235200300,1.7332001953125,-0.3836233615875244,0.3006984293460846,0.0325285755097866
1761235859253254100,1.751254150390625,-0.2606867551803589,-0.1482875347137451,0.2302961945533752
1761235859271293700,1.769293701171875,-0.2328923791646957,-0.4031710624694824,0.4833471179008484
1761235859289330700,1.78733056640625,-0.3547599911689758,-0.357508897781372,0.6834055185317993
1761235859307370200,1.805370361328125,-0.547182559967041,-0.0839939713478088,0.722348153591156
1761235859325408500,1.823408447265625,-0.6513350605964661,0.2596177160739898,0.650418758392334
1761235859343448300,1.8414482421875,-0.6258314251899719,0.4996877610683441,0.5404630303382874
1761235859361485800,1.85948583984375,-0.5754350423812866,0.5119050741195679,0.4192062616348266
1761235859379524600,1.877524658203125,-0.50335294008255,0.3550654351711273,0.3249803185462951
1761235859397544400,1.89554443359375,-0.4263839423656463,0.2105957865715026,0.261450320482254
1761235859415602700,1.913602783203125,-0.3776674270629883,0.145080491900444,0.2347249686717987
1761235859433640000,1.931639892578125,-0.3846924006938934,0.0763581544160842,0.1695151031017303
1761235859451679000,1.949678955078125,-0.3975205719470978,0.0094684110954403,0.1108720451593399
1761235859469717200,1.96771728515625,-0.3964515328407287,-0.0210748501121997,0.0867428630590438
1761235859487757000,1.985757080078125,-0.3666718602180481,-0.0777326002717018,0.0823140889406204
1761235859505794600,2.003794677734375,-0.323605865240097,-0.1739438772201538,0.0600175112485885
1761235859523830300,2.021830322265625,-0.2544253766536712,-0.2577851414680481,0.0116064399480819
1761235859541872400,2.039872314453125,-0.1864666193723678,-0.2260201424360275,-0.0056505035609006
1761235859559911200,2.0579111328125,-0.1443169116973877,-0.2154827117919922,-0.0430659987032413
1761235859577949700,2.07594970703125,-0.1111774742603302,-0.2417499274015426,-0.1094975918531417
1761235859595988000,2.093988037109375,-0.0971275717020034,-0.2648100852966308,-0.1353066563606262
1761235859614025000,2.11202490234375,-0.102472648024559,-0.2426662147045135,-0.0821613743901252
1761235859632066000,2.130066162109375,-0.1001818999648094,-0.1899790912866592,0.0259617734700441
1761235859650105000,2.14810498046875,-0.0942259654402732,-0.1298088580369949,0.1209513172507286
1761235859668141800,2.166141845703125,-0.1087340116500854,-0.0673478916287422,0.0890336111187934
1761235859686180600,2.1841806640625,-0.1014036312699318,0.0065668015740811,-0.0276416521519422
1761235859704220400,2.202220458984375,-0.0798706337809562,0.0076358155347406,-0.1201877370476722
1761235859722256600,2.220256591796875,-0.067195177078247,-0.0659734457731247,-0.1085812970995903
1761235859740298200,2.23829833984375,-0.0551305897533893,-0.1611157059669494,0.0297796800732612
1761235859758335200,2.256335205078125,-0.00335975876078,-0.2353358417749405,0.2771801054477691
1761235859776373800,2.274373779296875,0.0305432621389627,-0.1910481005907058,0.4783074855804443
1761235859794412800,2.292412841796875,0.0711658000946044,0.085062988102436,0.5797111392021179
1761235859812452400,2.310452392578125,0.1247692257165908,0.3721696436405182,0.5357288122177124
1761235859830488600,2.328488525390625,0.1965458989143371,0.3596469163894653,0.3286454975605011
1761235859848530400,2.346530517578125,0.2214386463165283,0.2225076705217361,0.1386664062738418
1761235859866566400,2.36456640625,0.1574505120515823,0.0600175112485885,0.1290452778339386
1761235859884605400,2.38260546875,0.0448985956609249,-0.0939205288887023,0.2641992270946502
1761235859902641000,2.400640869140625,-0.0517708286643028,-0.2231185287237167,0.3535382747650146
1761235859920684000,2.41868408203125,-0.0595593601465225,-0.3071125149726867,0.2936734557151794
1761235859938721500,2.436721435546875,-0.0319177098572254,-0.3029891550540924,0.1886046379804611
1761235859956759800,2.454759765625,-0.0080939643085002,-0.204487144947052,0.1495092660188675
1761235859974798300,2.47279833984375,-0.0018325957935303,-0.0198531206697225,0.1609629988670349
1761235859992838100,2.490838134765625,-0.0161879286170005,0.1640173196792602,0.14553864300251
1761235860010875600,2.508875732421875,-0.0343611687421798,0.3489567637443542,0.0977384373545646
1761235860028914400,2.52691455078125,-0.0200058370828628,0.4535674452781677,0.0875064432621002
1761235860046952700,2.54495263671875,0.0759000033140182,0.5734497308731079,0.230907067656517
1761235860064994800,2.562994873046875,0.2593123018741607,0.6933320760726929,0.455705463886261
1761235860083030300,2.5810302734375,0.4596760869026184,0.6527095437049866,0.5714644193649292
1761235860101069000,2.599069091796875,0.6007859706878662,0.4439463317394256,0.5241223573684692
1761235860119107300,2.617107421875,0.670577347278595,0.1742493063211441,0.3981314301490783
1761235860137147000,2.63514697265625,0.6110179424285889,0.0219911485910415,0.3187189400196075
1761235860155184400,2.653184326171875,0.5381723046302795,0.0951422601938247,0.2956587672233581
1761235860173223000,2.671222900390625,0.4349360466003418,0.1459967941045761,0.2861903607845306
1761235860191261700,2.68926171875,0.323605865240097,0.1408044397830963,0.252287358045578
1761235860209301500,2.707301513671875,0.2214386463165283,0.0390953756868839,0.2041817009449005
1761235860227339000,2.725339111328125,0.1366810947656631,-0.0995710343122482,0.1437060534954071
1761235860245377800,2.743377685546875,0.0980438739061355,-0.2814561724662781,0.0360410511493682
1761235860263416300,2.761416259765625,0.0988074541091919,-0.3136793076992035,-0.0626136884093284
1761235860281455900,2.779455810546875,0.1392772793769836,-0.2764165103435516,-0.1655444800853729
1761235860299493600,2.79749365234375,0.1704314053058624,-0.249385729432106,-0.2420553565025329
1761235860317532000,2.815531982421875,0.1056796908378601,-0.2469422817230224,-0.2306016236543655
1761235860335570400,2.8335703125,-0.007177666760981,-0.1698205322027206,-0.1745547503232956
1761235860353610200,2.8516103515625,-0.072540245950222,-0.0719293802976608,-0.1991420686244964
1761235860371647500,2.8696474609375,-0.0818559452891349,-0.0427605658769607,-0.3103195428848266
1761235860389686000,2.88768603515625,-0.0442877300083637,-0.1044579595327377,-0.351400226354599
1761235860407725300,2.905725341796875,-0.0003054326225537,-0.2116648107767105,-0.2528982162475586
1761235860425764900,2.923764892578125,-0.0042760567739605,-0.3008511364459991,-0.0561996027827262
1761235860443802600,2.941802734375,-0.0742201283574104,-0.2591595947742462,0.2089159190654754
1761235860461839600,2.959839599609375,-0.1207986027002334,-0.0160352122038602,0.4796819388866424
1761235860479881200,2.977881103515625,-0.085062988102436,0.0386372283101081,0.4992296099662781
1761235860497919200,2.995919189453125,-0.0416915528476238,-0.3770565688610077,0.1389718502759933
1761235860515956500,3.01395654296875,-0.1371392458677292,-0.8950703144073486,-0.3252857327461242
1761235860533991200,3.0319912109375,-0.2817615866661072,-1.0144944190979004,-0.5850561857223511
1761235860552033800,3.05003369140625,-0.418595403432846,-0.7099781036376953,-0.60429847240448
1761235860570076700,3.06807666015625,-0.4555527567863464,-0.2426662147045135,-0.5653557777404785
1761235860588110800,3.08611083984375,-0.3541491329669952,-0.1563815027475357,-0.5600107312202454
1761235860606150000,3.10414990234375,-0.2469422817230224,-0.3149010241031647,-0.4075998365879059
1761235860624188400,3.1221884765625,-0.1925752758979797,-0.3474296033382416,-0.0274889357388019
1761235860642227200,3.140227294921875,-0.1652390509843826,-0.2157881408929824,0.3911064863204956
1761235860660266000,3.158265869140625,-0.2023491114377975,-0.0633772686123848,0.5693264007568359
1761235860678304300,3.17630419921875,-0.3068070709705353,0.041233405470848,0.5079344511032104
1761235860696342800,3.1943427734375,-0.4216497242450714,0.0902553424239158,0.3222314119338989
1761235860714377500,3.21237744140625,-0.4949535727500915,0.0916297882795333,0.1817324161529541
1761235860732408000,3.230407958984375,-0.5051855444908142,0.0416915528476238,0.1533271819353103
1761235860750458400,3.248458251953125,-0.4505131244659424,-0.0200058370828628,0.2083050459623336
1761235860768496600,3.26649658203125,-0.3985895812511444,-0.026419922709465,0.2950479090213775
1761235860786535000,3.284534912109375,-0.3952298164367676,0.0769690200686454,0.3506366610527038
1761235860804575200,3.3025751953125,-0.4263839423656463,0.1912008225917816,0.2787072658538818
1761235860822600200,3.32060009765625,-0.447000652551651,0.2087631970643997,0.0615446716547012
1761235860840640000,3.338639892578125,-0.4465425014495849,0.0780380368232727,-0.1766927689313888
1761235860858692000,3.356692138671875,-0.4386012554168701,-0.1062905490398407,-0.3081815242767334
1761235860876728800,3.374728759765625,-0.3943135142326355,-0.2249511331319809,-0.2852740585803985
1761235860894767000,3.39276708984375,-0.343153566122055,-0.2706133127212524,-0.1922698318958282
1761235860912805400,3.410805419921875,-0.3083342313766479,-0.3109304010868072,-0.2115120887756347
1761235860930845200,3.42884521484375,-0.2698497176170349,-0.3188716471195221,-0.2611449062824249
1761235860948883000,3.446883056640625,-0.2335032373666763,-0.3161227703094482,-0.2616030275821686
1761235860966921200,3.464921142578125,-0.1547016203403473,-0.3268128931522369,-0.2698497176170349
1761235860984960000,3.4829599609375,-0.1740965992212295,-0.3880521357059479,-0.2806925773620605
1761235861002999300,3.500999267578125,-0.3130684494972229,-0.4208861589431762,-0.1852448880672454
1761235861021037000,3.519037109375,-0.4627304375171661,-0.4714352488517761,-0.1197295859456062
1761235861039075600,3.53707568359375,-0.5378668308258057,-0.4673119187355041,-0.1915062516927719
1761235861057114600,3.555114501953125,-0.4763221740722656,-0.361174076795578,-0.3529273867607116
1761235861075154400,3.573154541015625,-0.3562871515750885,-0.2151772826910019,-0.5196936130523682
1761235861093191700,3.591191650390625,-0.2018909603357315,0.1127046346664428,-0.5068654417991638
1761235861111230000,3.60922998046875,-0.0287106670439243,0.6346889734268188,-0.3596469163894653
1761235861129268700,3.627268798828125,0.1004873365163803,0.6649268269538879,-0.366213709115982
1761235861147308800,3.645308837890625,0.0280998013913631,0.0502436682581901,-0.517861008644104
1761235861165346000,3.663345947265625,-0.1878410577774047,-0.2632829248905182,-0.4682282209396362
1761235861183384300,3.68138427734375,-0.2373211532831192,0.0039706239476799,-0.1467603743076324
1761235861201422800,3.6994228515625,-0.1099557429552078,0.3523165285587311,0.2028072625398636
1761235861219462100,3.717462158203125,0.0091629782691597,0.3425426781177521,0.2860376536846161
1761235861237496800,3.735496826171875,0.1136209368705749,0.1873829066753387,0.1910481005907058
1761235861255539000,3.7535390625,0.1527163088321685,0.0583376325666904,0.051312681287527
1761235861273577500,3.771577392578125,0.08460483700037,0.0620028227567672,0.0117591563612222
1761235861291617300,3.7896171875,0.0197004042565822,0.1904372423887252,0.0479529201984405
1761235861309654500,3.807654541015625,-0.0369573459029197,0.3862195611000061,0.1070541366934776
1761235861327693000,3.825693115234375,-0.0314595587551593,0.6472117304801941,0.16920967400074
1761235861345731800,3.84373193359375,0.062460970133543,0.7820602059364319,0.1922698318958282
1761235861363771600,3.861771728515625,0.1863138973712921,0.7214318513870239,0.1736384481191635
1761235861381809000,3.879808837890625,0.3213151097297668,0.4996877610683441,0.1339322030544281
1761235861399847200,3.89784716796875,0.4214970171451568,0.2005165219306945,0.0959058403968811
1761235861417886200,3.91588623046875,0.4787656366825104,-0.00137444678694,0.0974330082535743
1761235861435925800,3.93392578125,0.5451972484588623,-0.1186605766415596,0.1267545372247696
1761235861453959700,3.951959716796875,0.6024658679962158,-0.2408336251974105,0.1763873398303985
1761235861472001800,3.970001708984375,0.6024658679962158,-0.3349068760871887,0.2347249686717987
1761235861490040000,3.9880400390625,0.5360342264175415,-0.4175263941287994,0.2509129047393799
1761235861508079900,4.006079833984375,0.4567744731903076,-0.470060795545578,0.1782199293375015
1761235861526118000,4.024117919921875,0.4243986308574676,-0.4789183437824249,0.0479529201984405
1761235861544156400,4.042156494140625,0.4175263941287994,-0.3837760984897613,-0.0946841165423393
1761235861562195000,4.06019482421875,0.3952298164367676,-0.2083050459623336,-0.1754710376262664
1761235861580234800,4.07823486328125,0.366213709115982,-0.0862847194075584,-0.2107485085725784
1761235861598272000,4.09627197265625,0.3179553747177124,-0.0649044290184974,-0.2122756689786911
1761235861616310500,4.114310546875,0.242513507604599,-0.0864374339580535,-0.1557706445455551
1761235861634349000,4.13234912109375,0.1640173196792602,-0.1232420653104782,-0.0833831056952476
1761235861652388600,4.150388671875,0.1166752651333808,-0.128434419631958,-0.0603229440748691
1761235861670426000,4.168426025390625,0.0812450796365737,-0.0798706337809562,-0.0759000033140182
1761235861688464400,4.18646435546875,-0.0210748501121997,0.0218384321779012,-0.1328631937503814
1761235861706501600,4.204501708984375,-0.1177442744374275,0.0821613743901252,-0.2191479057073593
1761235861724544800,4.222544677734375,-0.1456913650035858,-0.0233655963093042,-0.2808452844619751
1761235861742580700,4.240580810546875,-0.1070541366934776,-0.1459967941045761,-0.2232712507247924
1761235861760619500,4.25861962890625,0.0197004042565822,-0.1209513172507286,-0.0242818929255008
1761235861778657800,4.27665771484375,0.0928515195846557,-0.1084285825490951,0.099418319761753
1761235861796697600,4.294697509765625,0.0438295826315879,-0.3489567637443542,-0.0620028227567672
1761235861814734600,4.312734619140625,-0.152563601732254,-0.5303837656974792,-0.3077233731746673
1761235861832773400,4.3307734375,-0.37079519033432,-0.3196352422237396,-0.4074471294879913
1761235861850812000,4.34881201171875,-0.418748140335083,0.0746782794594764,-0.3417791128158569
1761235861868851500,4.3668515625,-0.3584251701831817,0.2652682363986969,-0.1693623960018158
1761235861886877200,4.384877197265625,-0.3451388776302337,0.1747074574232101,-0.0108428578823804
1761235861904930300,4.402930419921875,-0.2906191349029541,-0.0891863256692886,-0.0218384321779012
1761235861922966500,4.420966552734375,-0.2182316035032272,-0.2525927722454071,-0.0705549344420433
1761235861941006300,4.43900634765625,-0.2000583708286285,-0.1898263692855835,-0.052381694316864
1761235861959043800,4.4570439453125,-0.1921171247959137,-0.0300851128995418,-0.02122756652534
1761235861977081900,4.475081787109375,-0.2342668175697326,0.0812450796365737,-0.0514653958380222
1761235861995120600,4.49312060546875,-0.3016147017478943,0.042302418500185,-0.0803287774324417
1761235862013160200,4.51116015625,-0.3263547718524933,-0.1174388453364372,0.0134390350431203
1761235862031197700,4.52919775390625,-0.2961169183254242,-0.2605340182781219,0.2275473028421402
1761235862049232100,4.547232177734375,-0.2704605758190155,-0.280539870262146,0.4292855560779571
1761235862067263000,4.565262939453125,-0.2295326143503189,-0.1912008225917816,0.4670064747333526
1761235862085314800,4.583314697265625,-0.1913535445928573,-0.1893682330846786,0.342084527015686
1761235862103352000,4.60135205078125,-0.1989893466234207,-0.1690569519996643,0.2295326143503189
1761235862128064800,4.626064697265625,-0.3094032406806946,-0.0765108689665794,0.1339322030544281
1761235862146189300,4.644189208984375,-0.3778201639652252,-0.0371100641787052,0.0665843114256858
1761235862164232400,4.662232421875,-0.4379903674125671,-0.0710130855441093,0.0303905457258224
1761235862182269700,4.680269775390625,-0.4734205603599548,-0.1627955883741378,-0.0041233403608202
1761235862200309500,4.6983095703125,-0.4598288238048553,-0.1779145002365112,-0.0400116741657257
1761235862218347000,4.716346923828125,-0.417679101228714,-0.1968513280153274,-0.0983493030071258
1761235862236383000,4.734383056640625,-0.3419318199157715,-0.2292271852493286,-0.1627955883741378
1761235862254427400,4.752427490234375,-0.2562579810619354,-0.2257147133350372,-0.1667662113904953
1761235862272463400,4.77046337890625,-0.2180788964033126,-0.2229658216238021,-0.1178969889879226
1761235862290497000,4.7884970703125,-0.2176207453012466,-0.2565633952617645,-0.0844521224498748
1761235862308539400,4.806539306640625,-0.1908953934907913,-0.3116939961910248,-0.0731511116027832
1761235862326578400,4.824578369140625,-0.1122464910149574,-0.3642283976078033,-0.1175915598869323
1761235862344618200,4.8426181640625,0.0284052342176437,-0.427452951669693,-0.1157589629292488
1761235862362655500,4.860655517578125,0.0946841165423393,-0.4720461070537567,-0.0342084541916847
1761235862380695300,4.8786953125,0.0829249545931816,-0.5013676285743713,0.0418442711234092
1761235862398729700,4.896729736328125,0.1123992055654525,-0.3689626157283783,0.111482910811901
1761235862416775200,4.914775146484375,0.1724167168140411,0.0006108652451075,0.1342376321554184
1761235862434809600,4.9328095703125,0.1886046379804611,0.3074179291725158,0.0317649915814399
1761235862452837400,4.95083740234375,0.1177442744374275,0.2021963894367218,-0.2229658216238021
1761235862470883300,4.96888330078125,-0.0374154970049858,-0.0818559452891349,-0.4598288238048553
1761235862488926700,4.9869267578125,-0.1942551434040069,-0.3055853247642517,-0.543059229850769
1761235862506952200,5.0049521484375,-0.2515237629413605,-0.4108068645000458,-0.4980078935623169
1761235862525003500,5.02300341796875,-0.2771801054477691,-0.3758348524570465,-0.3132211565971374
1761235862543041800,5.041041748046875,-0.2716823220252991,-0.1731802970170974,-0.0620028227567672
1761235862561080600,5.05908056640625,-0.2196060568094253,0.0320704244077205,0.1123992055654525
1761235862579118000,5.0771181640625,-0.156686931848526,0.1185078546404838,0.1169806942343711
1761235862597157600,5.09515771484375,-0.08460483700037,0.1739438772201538,0.0395535230636596
1761235862615195600,5.113195556640625,-0.0187841057777404,0.2765692472457886,0.0215329993516206
1761235862633232600,5.131232666015625,0.0387899428606033,0.3330742716789245,0.0665843114256858
1761235862651272400,5.1492724609375,0.0826195254921913,0.3591887652873993,0.1449277848005294
1761235862669312300,5.167312255859375,0.1067487001419067,0.4120286107063293,0.1873829066753387
1761235862687349500,5.185349609375,0.1325577646493911,0.4517348408699035,0.1197295859456062
1761235862705389600,5.2033896484375,0.2018909603357315,0.3428481221199035,-0.0354301854968071
1761235862723426600,5.221426513671875,0.3112358450889587,0.110566608607769,-0.1976149082183838
1761235862741466400,5.23946630859375,0.3634648323059082,-0.0742201283574104,-0.3054326176643371
1761235862759503600,5.257503662109375,0.2863430976867676,-0.2246456891298294,-0.3523165285587311
1761235862777543400,5.27554345703125,0.1438587605953216,-0.3119994103908539,-0.3081815242767334
1761235862795581200,5.293581298828125,0.1043052375316619,-0.2519819140434265,-0.1959350258111953
1761235862813621000,5.31162109375,0.1522581577301025,-0.1498146951198578,-0.1453859210014343
1761235862831657700,5.32965771484375,0.1820378452539444,-0.0342084541916847,-0.1814269721508026
1761235862849698300,5.3476982421875,0.2237294018268585,0.0587957799434661,-0.2402227520942688
1761235862867735300,5.3657353515625,0.2657263875007629,0.1058324053883552,-0.2536617815494537
1761235862885775000,5.383775146484375,0.2866485118865967,0.1434006094932556,-0.2400700449943542
1761235862903811800,5.401811767578125,0.2813034355640411,0.1166752651333808,-0.1957823038101196
1761235862921853000,5.41985302734375,0.2612976133823395,0.1244637966156005,-0.1466076523065567
1761235862939889400,5.437889404296875,0.1945605874061584,0.1646281778812408,-0.1493565589189529
1761235862957919000,5.4559189453125,0.1356120854616165,0.2247984111309051,-0.2174680233001709
1761235862975954700,5.47395458984375,0.1699732542037964,0.1841758787631988,-0.3880521357059479
1761235862994006500,5.492006591796875,0.2507601976394653,0.0881173089146614,-0.6056728959083557
1761235863012044300,5.510044189453125,0.2834414839744568,-0.0604756586253643,-0.6841690540313721
1761235863030083800,5.528083740234375,0.252287358045578,-0.2451096773147583,-0.6088799238204956
1761235863048121000,5.54612109375,0.1769981980323791,-0.3387247920036316,-0.5002986192703247
1761235863066154500,5.564154541015625,0.1644754707813263,-0.3176499307155609,-0.4034765064716339
1761235863084201200,5.582201171875,0.2823724448680877,-0.0986547395586967,-0.3144428730010986
1761235863102238000,5.600238037109375,0.3906483352184295,-0.0545197241008281,-0.3588833212852478
1761235863120263200,5.61826318359375,0.3888157308101654,-0.2186897546052932,-0.5334380865097046
1761235863138305500,5.636305419921875,0.2722931802272796,-0.3106249868869781,-0.7513642311096191
1761235863156347400,5.654347412109375,0.09269879758358,-0.1305724531412124,-0.7976372838020325
1761235863174380300,5.67238037109375,-0.0645989999175071,0.1745547503232956,-0.5894849896430969
1761235863192429600,5.6904296875,-0.2255619913339615,0.3332269787788391,-0.2541199326515198
1761235863210469000,5.70846923828125,-0.2808452844619751,0.2727513313293457,0.0471893399953842
1761235863228503300,5.72650341796875,-0.2098322063684463,0.0058032199740409,0.2541199326515198
1761235863246549000,5.744549072265625,-0.1000291854143142,-0.2567161321640014,0.4859432876110077
1761235863264584000,5.762583984375,-0.039248090237379,-0.3289509415626526,0.7585419416427612
1761235863282623200,5.780623291015625,-0.030695978552103,-0.1953241676092147,0.9450085163116456
1761235863300661200,5.7986611328125,-0.0934623852372169,-0.0255036242306232,0.965319812297821
1761235863318700500,5.816700439453125,-0.23273965716362,0.1276708394289016,0.8947648406028748
1761235863336738000,5.834738037109375,-0.41813725233078,0.2854267954826355,0.8327620625495911
1761235863354777600,5.852777587890625,-0.4851797223091125,0.4161519408226013,0.773202657699585
1761235863372815000,5.870815185546875,-0.4161519408226013,0.3294090926647186,0.7531968355178833
1761235863390854700,5.888854736328125,-0.3039054572582245,0.1211040318012237,0.780380368232727
1761235863408892200,5.90689208984375,-0.2142609804868698,0.0097738439217209,0.817948579788208
1761235863426931700,5.924931640625,-0.173791155219078,0.0297796800732612,0.8009970784187317
1761235863444969000,5.942968994140625,-0.2422080636024475,0.0821613743901252,0.7154759168624878
1761235863463009300,5.96100927734375,-0.3558290004730224,0.1200350224971771,0.5586362481117249
1761235863481046300,5.97904638671875,-0.4276056587696075,0.1740965992212295,0.3851505517959595
1761235863499086300,5.99708642578125,-0.4476115107536316,0.2003637999296188,0.2379320114850998
1761235863517123600,6.01512353515625,-0.3967569768428802,0.1601994037628173,0.1438587605953216
1761235863535163400,6.033163330078125,-0.3072652220726013,0.0959058403968811,0.1186605766415596
1761235863553200400,6.051200439453125,-0.235946699976921,0.0630718395113945,0.1296561509370803
1761235863571237400,6.0692373046875,-0.2199114859104156,0.0410806871950626,0.1036943718791008
1761235863589280500,6.087280517578125,-0.2063197344541549,0.0413861200213432,0.0604756586253643
1761235863607317200,6.105317138671875,-0.1879937797784805,0.0401643887162208,-0.0117591563612222
1761235863625354800,6.123354736328125,-0.1580613851547241,0.030695978552103,-0.0589484944939613
1761235863643394600,6.14139453125,-0.1227839142084121,0.0591012127697467,-0.0537561401724815
1761235863661432300,6.159432373046875,-0.0345138870179653,0.0733038261532783,-0.0925460830330848
1761235863679471600,6.1774716796875,0.0838412567973136,0.1314887404441833,-0.1731802970170974
1761235863697509000,6.195509033203125,0.2040289938449859,0.1142318025231361,-0.2539672255516052
1761235863715549000,6.213548828125,0.3061962127685547,0.0077885319478809,-0.3130684494972229
1761235863733586700,6.231586669921875,0.3549126982688904,-0.0181732401251792,-0.2785545587539673
1761235863751624700,6.249624755859375,0.3240640163421631,-0.1177442744374275,-0.2160935848951339
1761235863769664300,6.267664306640625,0.2298380434513092,-0.4642575979232788,-0.3691153228282928
1761235863787702800,6.285702880859375,-0.0184786729514598,-0.7748825550079346,-0.6948592066764832
1761235863805740500,6.303740478515625,-0.3291036486625671,-0.7872526049613953,-0.925308108329773
1761235863823780600,6.321780517578125,-0.4816672503948211,-0.6207917928695679,-0.888961672782898
1761235863841817600,6.339817626953125,-0.427911102771759,-0.3681990206241607,-0.5862779021263123
1761235863859857400,6.357857421875,-0.2281581759452819,-0.1281289905309677,-0.1527163088321685
1761235863877895000,6.37589501953125,0.0024434609804302,0.0719293802976608,0.2003637999296188
1761235863895934200,6.393934326171875,0.11636982858181,0.1023199260234832,0.3173444867134094
1761235863913971700,6.4119716796875,0.157603234052658,0.0630718395113945,0.308792382478714
1761235863932011300,6.43001123046875,0.1337794959545135,0.0928515195846557,0.2458732575178146
1761235863950048800,6.448048828125,0.1046106740832328,0.0679587572813034,0.1597412675619125
1761235863968088600,6.466088623046875,0.1319468915462494,0.0675006061792373,0.2144137024879455
1761235863986122500,6.48412255859375,0.2121229618787765,0.1078177168965339,0.4105014503002167
1761235864004166100,6.502166259765625,0.3303253948688507,0.1508837193250656,0.561079740524292
1761235864022203100,6.520203125,0.3956879675388336,0.1585195362567901,0.5395467281341553
1761235864040240000,6.538240234375,0.3921754956245422,0.0894917547702789,0.4221078753471374
1761235864058283000,6.556282958984375,0.3251330256462097,-0.0794124826788902,0.2715296149253845
1761235864076319700,6.57431982421875,0.3008511364459991,-0.183565005660057,0.1960877478122711
1761235864094357200,6.592357177734375,0.3228422701358795,-0.2112066596746444,0.2477058619260788
1761235864112396800,6.610396728515625,0.3596469163894653,-0.2646573781967163,0.3153591752052307
1761235864130434300,6.628434326171875,0.3999640047550201,-0.36529740691185,0.2936734557151794
1761235864148472000,6.64647216796875,0.3536909818649292,-0.3608686327934265,0.2426662147045135
