time,seconds_elapsed,z,y,x
1761238256220773400,0.0037734375,0.0004581489483825,0.0,-0.0007635815418325
1761238256238811600,0.021811767578125,0.0004581489483825,0.0001527163112768,0.0010690141934901
1761238256256852500,0.0398525390625,-0.0003054326225537,0.0012217304902151,0.0004581489483825
1761238256274891300,0.057891357421875,-0.0004581489483825,-0.0003054326225537,-0.0003054326225537
1761238256292930300,0.075930419921875,0.0003054326225537,-0.0004581489483825,-0.0006108652451075
1761238256310969600,0.093969482421875,0.0004581489483825,-0.0007635815418325,-0.0001527163112768
1761238256329009000,0.1120087890625,-0.0007635815418325,-0.0012217304902151,-0.00137444678694
1761238256347048000,0.1300478515625,-0.0001527163112768,0.0004581489483825,-0.0012217304902151
1761238256374106600,0.157106689453125,-0.0001527163112768,-0.0024434609804302,0.0007635815418325
1761238256392135400,0.175135498046875,-0.0001527163112768,0.0010690141934901,0.0007635815418325
1761238256410187800,0.193187744140625,-0.0006108652451075,-0.0006108652451075,0.0003054326225537
1761238256428226000,0.21122607421875,0.0001527163112768,0.0001527163112768,-0.00167987938039
1761238256446265300,0.229265380859375,0.0006108652451075,-0.0007635815418325,0.0006108652451075
1761238256464304000,0.24730419921875,-0.0003054326225537,0.0,0.00137444678694
1761238256482343700,0.26534375,0.0012217304902151,-0.0001527163112768,0.0001527163112768
1761238256500382700,0.2833828125,-0.0001527163112768,-0.0001527163112768,0.0
1761238256518421800,0.301421875,0.0012217304902151,0.0001527163112768,0.0019853119738399
1761238256536461000,0.3194609375,0.0,-0.0009162978967651,0.001527163083665
1761238256554500900,0.3375009765625,0.0009162978967651,-0.00137444678694,0.0007635815418325
1761238256572540200,0.3555400390625,0.0001527163112768,0.0003054326225537,0.0010690141934901
1761238256590579500,0.373579345703125,0.0009162978967651,0.0004581489483825,0.0009162978967651
1761238256608618500,0.391618408203125,-0.0010690141934901,0.0007635815418325,0.00167987938039
1761238256626656800,0.40965673828125,-0.0006108652451075,0.0001527163112768,0.0
1761238256644697300,0.427697265625,0.0006108652451075,0.0010690141934901,-0.0007635815418325
1761238256662736100,0.445736083984375,0.0012217304902151,0.0007635815418325,0.0
1761238256680776400,0.4637763671875,0.0,0.0004581489483825,-0.0007635815418325
1761238256698814500,0.481814453125,-0.0003054326225537,0.0010690141934901,0.0006108652451075
1761238256716854300,0.499854248046875,-0.0004581489483825,-0.0009162978967651,0.001527163083665
1761238256734883600,0.517883544921875,-0.0006108652451075,0.0,0.00137444678694
1761238256752932900,0.535932861328125,-0.0004581489483825,0.0004581489483825,-0.00137444678694
1761238256770972000,0.553971923828125,0.0001527163112768,0.0001527163112768,0.0
1761238256789011200,0.57201123046875,0.0012217304902151,0.00137444678694,-0.0010690141934901
1761238256807050200,0.59005029296875,0.0003054326225537,0.0010690141934901,-0.0001527163112768
1761238256825089500,0.608089599609375,0.0003054326225537,0.00167987938039,0.0003054326225537
1761238256843125500,0.62612548828125,0.001527163083665,0.0001527163112768,0.00137444678694
1761238256861168000,0.644168212890625,0.0001527163112768,-0.0019853119738399,-0.0006108652451075
1761238256879206400,0.662206298828125,0.0,0.0003054326225537,0.0007635815418325
1761238256897235200,0.680235107421875,-0.0001527163112768,-0.0007635815418325,0.00137444678694
1761238256915286000,0.6982861328125,0.001527163083665,0.0024434609804302,-0.0003054326225537
1761238256933325300,0.7163251953125,0.0006108652451075,0.0003054326225537,0.0003054326225537
1761238256951364400,0.7343642578125,-0.0004581489483825,-0.0003054326225537,0.0010690141934901
1761238256969403400,0.7524033203125,-0.0004581489483825,-0.0001527163112768,-0.0004581489483825
1761238256987443000,0.77044287109375,0.0007635815418325,0.0019853119738399,-0.00167987938039
1761238257005481700,0.788481689453125,-0.0009162978967651,0.0001527163112768,0.0012217304902151
1761238257023521300,0.806521240234375,0.0,-0.00167987938039,0.0003054326225537
1761238257041560600,0.824560546875,0.0003054326225537,0.0004581489483825,0.00137444678694
1761238257059600100,0.84260009765625,-0.0001527163112768,0.0006108652451075,0.0004581489483825
1761238257077639400,0.860639404296875,0.0001527163112768,-0.0018325957935303,-0.0006108652451075
1761238257095678500,0.878678466796875,0.0006108652451075,-0.0006108652451075,0.0006108652451075
1761238257113717000,0.896717041015625,0.0007635815418325,-0.0006108652451075,-0.0009162978967651
1761238257131756000,0.914756103515625,0.0006108652451075,-0.00137444678694,0.0004581489483825
1761238257149797400,0.93279736328125,0.001527163083665,0.0001527163112768,0.00167987938039
1761238257167835000,0.9508349609375,0.00137444678694,-0.0025961773935705,0.0007635815418325
1761238257185874200,0.968874267578125,-0.0001527163112768,0.0009162978967651,-0.0007635815418325
1761238257203913500,0.98691357421875,-0.0001527163112768,-0.00137444678694,0.0010690141934901
1761238257221955000,1.004955078125,0.0001527163112768,0.0004581489483825,-0.0019853119738399
1761238257239991800,1.02299169921875,-0.0006108652451075,-0.001527163083665,0.0
1761238257258031600,1.041031494140625,0.0001527163112768,0.0,0.0007635815418325
1761238257276069600,1.059069580078125,-0.0009162978967651,0.0001527163112768,0.0010690141934901
1761238257294111500,1.077111572265625,0.0007635815418325,-0.0003054326225537,-0.0010690141934901
1761238257312149500,1.0951494140625,-0.0007635815418325,0.0004581489483825,0.0
1761238257330187300,1.113187255859375,0.0001527163112768,-0.0006108652451075,0.0007635815418325
1761238257348228900,1.131228759765625,0.0003054326225537,0.0,-0.0006108652451075
1761238257366266600,1.1492666015625,0.0,-0.0006108652451075,-0.0012217304902151
1761238257384306200,1.16730615234375,0.0010690141934901,-0.0012217304902151,0.0010690141934901
1761238257402335200,1.185335205078125,-0.0006108652451075,-0.0007635815418325,0.0004581489483825
1761238257420384800,1.203384765625,0.0003054326225537,0.0001527163112768,0.0010690141934901
1761238257438423600,1.221423583984375,0.0007635815418325,-0.0007635815418325,-0.0001527163112768
1761238257456463400,1.23946337890625,0.0,-0.0006108652451075,-0.0004581489483825
1761238257474502400,1.25750244140625,-0.0012217304902151,0.0,0.0006108652451075
1761238257492541700,1.275541748046875,-0.0009162978967651,-0.0004581489483825,0.0009162978967651
1761238257510581000,1.2935810546875,-0.0003054326225537,-0.0003054326225537,0.0001527163112768
1761238257528619800,1.311619873046875,0.0007635815418325,0.00137444678694,0.0010690141934901
1761238257546660000,1.32966015625,0.0009162978967651,0.0007635815418325,0.00137444678694
1761238257564699600,1.34769970703125,0.0003054326225537,0.0004581489483825,0.0009162978967651
1761238257582737700,1.365737548828125,0.0006108652451075,-0.0010690141934901,0.0006108652451075
1761238257600776700,1.383776611328125,0.0003054326225537,0.0001527163112768,0.0006108652451075
1761238257618815700,1.401815673828125,-0.0006108652451075,0.0006108652451075,-0.00167987938039
1761238257636855300,1.419855224609375,-0.0003054326225537,0.0007635815418325,0.0004581489483825
1761238257654894600,1.43789453125,-0.0001527163112768,0.001527163083665,-0.0003054326225537
1761238257672934000,1.455933837890625,-0.0004581489483825,0.0009162978967651,-0.0004581489483825
1761238257690973400,1.473973388671875,-0.0009162978967651,0.0,0.001527163083665
1761238257709011700,1.49201171875,-0.0001527163112768,0.0,0.0007635815418325
1761238257727052300,1.51005224609375,0.00137444678694,-0.00167987938039,0.0006108652451075
1761238257745091000,1.528091064453125,-0.0007635815418325,0.0001527163112768,0.0003054326225537
1761238257763126500,1.54612646484375,-0.0007635815418325,-0.0003054326225537,0.0003054326225537
1761238257781169700,1.564169677734375,0.0003054326225537,-0.0007635815418325,0.0004581489483825
1761238257799208400,1.58220849609375,-0.0004581489483825,-0.00137444678694,0.0004581489483825
1761238257817247500,1.60024755859375,0.0,-0.0009162978967651,0.0
1761238257835286500,1.61828662109375,0.0003054326225537,0.0,-0.0006108652451075
1761238257853325800,1.636325927734375,-0.0007635815418325,0.0003054326225537,0.0
1761238257871365000,1.654365234375,-0.0004581489483825,0.0004581489483825,-0.0007635815418325
1761238257889405000,1.672405029296875,0.0006108652451075,-0.0001527163112768,-0.00137444678694
1761238257907444000,1.69044384765625,-0.0006108652451075,0.0,0.0006108652451075
1761238257925483300,1.708483154296875,-0.0010690141934901,0.0009162978967651,0.0004581489483825
1761238257943522300,1.726522216796875,0.0012217304902151,-0.0004581489483825,0.0010690141934901
1761238257961560300,1.744560302734375,-0.0006108652451075,0.0009162978967651,0.0007635815418325
1761238257979602400,1.7626025390625,-0.0009162978967651,-0.00137444678694,-0.0012217304902151
1761238257997640000,1.780639892578125,0.0,-0.0006108652451075,-0.0001527163112768
1761238258015679000,1.798678955078125,0.0007635815418325,0.0003054326225537,0.0
1761238258033713400,1.81671337890625,0.0,0.0009162978967651,-0.0003054326225537
1761238258051757800,1.8347578125,0.0007635815418325,-0.0012217304902151,0.0006108652451075
1761238258069784800,1.852784912109375,0.0004581489483825,0.0009162978967651,0.00137444678694
1761238258087836400,1.87083642578125,0.0001527163112768,0.0006108652451075,-0.0001527163112768
1761238258105875500,1.88887548828125,0.0,0.0009162978967651,0.0003054326225537
1761238258123914800,1.906914794921875,0.0004581489483825,-0.0007635815418325,-0.0004581489483825
1761238258141956600,1.92495654296875,0.00137444678694,0.0019853119738399,0.0007635815418325
1761238258159992600,1.94299267578125,0.0009162978967651,-0.0001527163112768,0.0010690141934901
1761238258178032400,1.961032470703125,-0.0003054326225537,0.0001527163112768,-0.0010690141934901
1761238258196071700,1.97907177734375,0.0004581489483825,-0.0010690141934901,-0.0003054326225537
1761238258214111000,1.997111083984375,0.0001527163112768,0.0012217304902151,0.0003054326225537
1761238258232149500,2.0151494140625,0.0006108652451075,0.0003054326225537,0.0006108652451075
1761238258250188800,2.033188720703125,-0.0006108652451075,-0.0010690141934901,-0.00167987938039
1761238258268228400,2.051228271484375,0.0004581489483825,0.0,0.0006108652451075
1761238258286268000,2.069267822265625,0.0004581489483825,-0.0001527163112768,-0.0006108652451075
1761238258304306700,2.087306640625,0.0001527163112768,-0.0003054326225537,-0.0021380283869802
1761238258322345700,2.105345703125,-0.0010690141934901,0.0004581489483825,0.0
1761238258340385000,2.123385009765625,-0.0007635815418325,0.0003054326225537,-0.0010690141934901
1761238258358424300,2.14142431640625,0.0003054326225537,0.0001527163112768,-0.0003054326225537
1761238258376464000,2.1594638671875,-0.0003054326225537,0.0009162978967651,0.0004581489483825
1761238258394503200,2.177503173828125,0.0,0.0019853119738399,-0.0001527163112768
1761238258412542200,2.195542236328125,0.0010690141934901,-0.0001527163112768,0.0007635815418325
1761238258430581500,2.21358154296875,-0.0004581489483825,-0.0012217304902151,-0.0003054326225537
1761238258448620000,2.2316201171875,-0.0004581489483825,0.0006108652451075,-0.00137444678694
1761238258466658800,2.249658935546875,0.0009162978967651,-0.0021380283869802,-0.0001527163112768
1761238258484700200,2.2677001953125,-0.0009162978967651,-0.0003054326225537,-0.00137444678694
1761238258502737700,2.285737548828125,0.0006108652451075,-0.0012217304902151,-0.00137444678694
1761238258520777000,2.30377685546875,0.0001527163112768,-0.0007635815418325,-0.0019853119738399
1761238258538815700,2.321815673828125,-0.0010690141934901,0.0004581489483825,0.0
1761238258556856600,2.339856689453125,0.00167987938039,0.0007635815418325,0.0003054326225537
1761238258574895400,2.357895263671875,-0.0003054326225537,-0.0009162978967651,0.0012217304902151
1761238258592934400,2.375934326171875,0.0010690141934901,-0.00137444678694,-0.0004581489483825
1761238258610972200,2.39397216796875,-0.0006108652451075,0.0010690141934901,-0.0001527163112768
1761238258629012700,2.4120126953125,0.0003054326225537,-0.00137444678694,-0.0012217304902151
1761238258647053300,2.43005322265625,-0.0004581489483825,0.0007635815418325,-0.0009162978967651
1761238258665091000,2.448091064453125,-0.0001527163112768,-0.0022907445672899,0.0010690141934901
1761238258683126500,2.46612646484375,0.0001527163112768,-0.00137444678694,-0.0007635815418325
1761238258701169200,2.484169189453125,-0.0009162978967651,0.0006108652451075,-0.0009162978967651
1761238258719208200,2.502208251953125,0.0003054326225537,0.0001527163112768,0.0010690141934901
1761238258737240000,2.520239990234375,0.0004581489483825,-0.0018325957935303,0.0012217304902151
1761238258755287300,2.538287353515625,0.0003054326225537,-0.0007635815418325,0.0007635815418325
1761238258773326300,2.556326416015625,0.0,0.0,0.0009162978967651
1761238258791365600,2.57436572265625,0.0004581489483825,0.0006108652451075,0.0009162978967651
1761238258809404200,2.592404052734375,0.0004581489483825,0.0003054326225537,-0.0018325957935303
1761238258827444000,2.61044384765625,0.0,-0.0009162978967651,-0.0004581489483825
1761238258845483000,2.62848291015625,0.0007635815418325,-0.0003054326225537,-0.0003054326225537
1761238258863517200,2.64651708984375,-0.0003054326225537,-0.0004581489483825,0.0012217304902151
1761238258881561600,2.6645615234375,-0.0004581489483825,-0.00137444678694,0.00137444678694
1761238258899600400,2.682600341796875,-0.0007635815418325,0.0004581489483825,0.0003054326225537
1761238258917640000,2.700639892578125,-0.0010690141934901,-0.00137444678694,-0.0004581489483825
1761238258935679000,2.718678955078125,-0.0003054326225537,-0.0010690141934901,0.0
1761238258953718000,2.736718017578125,0.0007635815418325,-0.0006108652451075,-0.0001527163112768
1761238258971757000,2.754757080078125,0.0003054326225537,0.0001527163112768,-0.001527163083665
1761238258989796400,2.77279638671875,-0.0003054326225537,-0.0007635815418325,0.001527163083665
1761238259007835400,2.79083544921875,0.0006108652451075,0.0012217304902151,-0.00167987938039
1761238259025875000,2.808875,-0.0003054326225537,0.001527163083665,0.0001527163112768
1761238259043914500,2.82691455078125,-0.0010690141934901,0.0003054326225537,-0.0004581489483825
1761238259061955300,2.844955322265625,0.0001527163112768,-0.0004581489483825,-0.0003054326225537
1761238259079992300,2.862992431640625,-0.0004581489483825,-0.0007635815418325,-0.0007635815418325
1761238259098031900,2.881031982421875,-0.0007635815418325,0.0001527163112768,-0.0003054326225537
1761238259116071000,2.89907080078125,0.0004581489483825,0.0006108652451075,-0.0001527163112768
1761238259134109000,2.91710888671875,0.0,-0.0006108652451075,-0.0001527163112768
1761238259152150800,2.93515087890625,-0.0009162978967651,-0.0006108652451075,0.0001527163112768
1761238259170188000,2.95318798828125,0.0001527163112768,0.001527163083665,0.0001527163112768
1761238259188227600,2.9712275390625,-0.0003054326225537,0.0,0.0001527163112768
1761238259206266600,2.9892666015625,-0.0006108652451075,-0.0003054326225537,0.0006108652451075
1761238259224306200,3.00730615234375,0.0019853119738399,-0.0006108652451075,0.0001527163112768
1761238259242345500,3.025345458984375,0.0006108652451075,-0.0019853119738399,0.0001527163112768
1761238259260384800,3.043384765625,0.0007635815418325,-0.0004581489483825,-0.0009162978967651
1761238259278424000,3.061424072265625,-0.0004581489483825,-0.0006108652451075,-0.0004581489483825
1761238259296460800,3.079460693359375,-0.0003054326225537,-0.0010690141934901,0.0012217304902151
1761238259314503700,3.097503662109375,0.0001527163112768,-0.0003054326225537,0.0
1761238259332541400,3.11554150390625,-0.0010690141934901,0.0010690141934901,0.0
1761238259350580000,3.133580078125,-0.0001527163112768,-0.0003054326225537,-0.001527163083665
1761238259368619000,3.151618896484375,-0.0007635815418325,-0.0010690141934901,-0.0009162978967651
1761238259386659300,3.169659423828125,0.0003054326225537,0.0007635815418325,-0.0007635815418325
1761238259404689400,3.187689453125,0.0003054326225537,0.0004581489483825,0.0003054326225537
1761238259422737200,3.205737060546875,-0.0006108652451075,-0.0001527163112768,0.0
1761238259440776400,3.2237763671875,0.0006108652451075,0.0004581489483825,-0.0006108652451075
1761238259458815500,3.2418154296875,0.0001527163112768,0.0009162978967651,-0.0021380283869802
1761238259476854300,3.259854248046875,0.0006108652451075,-0.0018325957935303,-0.0006108652451075
1761238259494894000,3.27789404296875,0.0,0.0003054326225537,-0.001527163083665
1761238259512933400,3.295933349609375,-0.0003054326225537,0.0001527163112768,0.0001527163112768
1761238259530972400,3.313972412109375,-0.0003054326225537,0.0012217304902151,-0.0007635815418325
1761238259549011700,3.33201171875,0.00137444678694,-0.0006108652451075,-0.0007635815418325
1761238259567050200,3.35005029296875,0.0,0.0004581489483825,0.0003054326225537
1761238259585090000,3.368090087890625,0.0004581489483825,-0.0003054326225537,0.0007635815418325
1761238259603116500,3.386116455078125,-0.0004581489483825,-0.0006108652451075,-0.0001527163112768
1761238259621156400,3.40415625,-0.0001527163112768,0.0001527163112768,0.0003054326225537
1761238259639197000,3.422197021484375,0.00137444678694,0.0010690141934901,0.0003054326225537
1761238259657246000,3.440245849609375,-0.0003054326225537,0.0012217304902151,0.0009162978967651
1761238259675285800,3.45828564453125,0.0,0.0006108652451075,0.0
1761238259693320200,3.4763203125,0.0010690141934901,-0.001527163083665,0.0006108652451075
1761238259711364000,3.494364013671875,0.0001527163112768,0.0001527163112768,0.0
1761238259729403400,3.5124033203125,-0.0001527163112768,-0.0001527163112768,0.0010690141934901
1761238259747442400,3.5304423828125,0.0004581489483825,-0.0004581489483825,0.0003054326225537
1761238259765482000,3.54848193359375,-0.0001527163112768,0.0004581489483825,0.0006108652451075
1761238259783520500,3.5665205078125,-0.0004581489483825,-0.0006108652451075,-0.0001527163112768
1761238259801560000,3.58456005859375,-0.0001527163112768,-0.0010690141934901,0.0004581489483825
1761238259819598800,3.602598876953125,-0.0003054326225537,-0.0003054326225537,0.0007635815418325
1761238259837638000,3.620637939453125,0.0009162978967651,0.0,-0.0001527163112768
1761238259855677200,3.63867724609375,-0.0010690141934901,0.0,0.0007635815418325
1761238259873716200,3.65671630859375,0.0004581489483825,0.0,-0.00137444678694
1761238259891755800,3.674755859375,0.0007635815418325,0.001527163083665,0.0004581489483825
1761238259909795000,3.692795166015625,-0.0009162978967651,-0.0003054326225537,0.0007635815418325
1761238259927834000,3.710834228515625,-0.0003054326225537,0.001527163083665,0.0
1761238259945873400,3.728873291015625,0.0,-0.0001527163112768,0.0003054326225537
1761238259963911200,3.7469111328125,-0.0009162978967651,-0.0001527163112768,0.0006108652451075
1761238259981956900,3.764956787109375,0.0001527163112768,-0.0006108652451075,-0.0003054326225537
1761238259999990300,3.782990234375,-0.0001527163112768,0.0,0.0007635815418325
1761238260018029800,3.80102978515625,0.0007635815418325,0.0012217304902151,0.0001527163112768
1761238260036068900,3.81906884765625,-0.0006108652451075,0.0004581489483825,0.0018325957935303
1761238260054108700,3.837108642578125,0.0009162978967651,0.0018325957935303,0.0010690141934901
1761238260072145000,3.855144775390625,0.0001527163112768,0.0007635815418325,0.0007635815418325
1761238260090186800,3.873186767578125,-0.0003054326225537,0.0001527163112768,0.0001527163112768
1761238260108225800,3.891225830078125,0.0007635815418325,0.0021380283869802,-0.0010690141934901
1761238260126265000,3.90926513671875,0.00137444678694,0.0004581489483825,-0.0009162978967651
1761238260144303900,3.927303955078125,0.0003054326225537,-0.0007635815418325,0.0
1761238260162343400,3.945343505859375,0.0001527163112768,-0.0004581489483825,0.0003054326225537
1761238260180382500,3.963382568359375,0.0006108652451075,0.0004581489483825,0.0003054326225537
1761238260198421200,3.981421142578125,-0.0003054326225537,-0.0006108652451075,-0.0010690141934901
1761238260216461000,3.9994609375,0.0007635815418325,-0.00137444678694,0.0010690141934901
1761238260234499600,4.01749951171875,-0.0001527163112768,0.0009162978967651,0.0001527163112768
1761238260252539100,4.0355390625,0.0003054326225537,0.0004581489483825,-0.0004581489483825
1761238260270578700,4.05357861328125,-0.0007635815418325,0.0001527163112768,-0.0009162978967651
1761238260288616700,4.07161669921875,-0.0003054326225537,-0.0007635815418325,0.0009162978967651
1761238260306656500,4.089656494140625,0.0006108652451075,-0.0012217304902151,0.0
1761238260324695600,4.107695556640625,-0.0001527163112768,0.0019853119738399,0.0003054326225537
1761238260342734600,4.125734619140625,0.0001527163112768,0.0019853119738399,-0.0004581489483825
1761238260360774100,4.143774169921875,0.0004581489483825,-0.0004581489483825,-0.0007635815418325
1761238260378813200,4.161813232421875,0.0004581489483825,0.0,-0.0004581489483825
1761238260396852500,4.1798525390625,0.0,-0.0010690141934901,-0.0003054326225537
1761238260414891800,4.197891845703125,-0.0001527163112768,0.0,-0.0003054326225537
1761238260432930800,4.215930908203125,0.0006108652451075,0.0001527163112768,-0.0006108652451075
1761238260450969600,4.233969482421875,0.00167987938039,0.0,0.0006108652451075
1761238260469009000,4.2520087890625,0.0006108652451075,0.0006108652451075,-0.0007635815418325
1761238260487048000,4.2700478515625,0.0004581489483825,-0.0003054326225537,0.0009162978967651
1761238260505087000,4.2880869140625,-0.0003054326225537,0.00137444678694,0.0010690141934901
1761238260523122200,4.3061220703125,-0.0004581489483825,0.0,0.0003054326225537
1761238260541165000,4.3241650390625,0.0003054326225537,0.0,0.0
1761238260559204400,4.342204345703125,0.0003054326225537,-0.0006108652451075,-0.0006108652451075
1761238260577244200,4.360244140625,-0.0003054326225537,0.0,0.0007635815418325
1761238260595283200,4.378283203125,-0.0006108652451075,0.0007635815418325,-0.0001527163112768
1761238260613322200,4.396322265625,0.0012217304902151,0.0001527163112768,-0.0006108652451075
1761238260631361500,4.414361572265625,0.0007635815418325,0.001527163083665,-0.0004581489483825
1761238260649400300,4.432400390625,-0.0007635815418325,-0.0003054326225537,0.0009162978967651
1761238260667439600,4.450439697265625,0.0009162978967651,0.0006108652451075,-0.0001527163112768
1761238260685478400,4.468478515625,0.0006108652451075,0.001527163083665,-0.0012217304902151
1761238260703523800,4.48652392578125,0.0001527163112768,0.0021380283869802,0.0007635815418325
1761238260721557200,4.50455712890625,-0.0004581489483825,-0.0004581489483825,0.0009162978967651
1761238260739584300,4.522584228515625,0.0,0.0006108652451075,-0.0010690141934901
1761238260757635300,4.54063525390625,-0.0003054326225537,0.0,0.0004581489483825
1761238260775675000,4.5586748046875,-0.0003054326225537,0.0001527163112768,-0.0010690141934901
1761238260793713700,4.576713623046875,-0.0012217304902151,0.0019853119738399,-0.0003054326225537
1761238260811752700,4.594752685546875,0.0010690141934901,0.00167987938039,0.0001527163112768
1761238260829792300,4.612792236328125,-0.0006108652451075,-0.0004581489483825,-0.0010690141934901
1761238260856760300,4.63976025390625,0.0010690141934901,0.0,-0.0018325957935303
1761238260874886700,4.65788671875,0.0018325957935303,-0.0003054326225537,-0.0007635815418325
1761238260892926700,4.6759267578125,-0.0009162978967651,-0.0004581489483825,0.0007635815418325
1761238260910965000,4.693965087890625,-0.0003054326225537,0.0010690141934901,-0.0006108652451075
1761238260929005800,4.712005859375,-0.0001527163112768,0.0006108652451075,0.001527163083665
1761238260947040800,4.730040771484375,0.0001527163112768,-0.0004581489483825,0.0009162978967651
1761238260965086200,4.748086181640625,-0.0006108652451075,0.0009162978967651,0.0012217304902151
1761238260983122200,4.7661220703125,-0.0003054326225537,-0.001527163083665,0.00137444678694
1761238261001161500,4.784161376953125,-0.0004581489483825,-0.0003054326225537,-0.0003054326225537
1761238261019200300,4.8022001953125,-0.0004581489483825,-0.0009162978967651,0.0
1761238261037239600,4.820239501953125,0.0006108652451075,-0.0003054326225537,-0.0006108652451075
1761238261055278800,4.83827880859375,0.0004581489483825,-0.0010690141934901,-0.0012217304902151
1761238261073318400,4.856318359375,0.0010690141934901,-0.0003054326225537,-0.00137444678694
1761238261091356700,4.874356689453125,-0.0010690141934901,-0.0003054326225537,0.0004581489483825
1761238261109396200,4.892396240234375,-0.0003054326225537,0.0006108652451075,-0.0009162978967651
1761238261127435000,4.91043505859375,0.0,0.001527163083665,-0.00167987938039
1761238261145471500,4.928471435546875,0.0001527163112768,-0.0001527163112768,0.0012217304902151
1761238261163513000,4.94651318359375,0.0,-0.0012217304902151,0.0009162978967651
1761238261181552600,4.964552734375,0.0003054326225537,0.0001527163112768,-0.0006108652451075
1761238261199592000,4.982592041015625,-0.0007635815418325,-0.0010690141934901,-0.0003054326225537
1761238261217631200,5.00063134765625,-0.0006108652451075,0.0001527163112768,0.0003054326225537
1761238261235665200,5.0186650390625,-0.0004581489483825,0.0004581489483825,-0.0009162978967651
1761238261253709600,5.03670947265625,-0.0012217304902151,-0.0003054326225537,0.0
1761238261271745800,5.054745849609375,0.0003054326225537,-0.0001527163112768,-0.0010690141934901
1761238261289790500,5.07279052734375,-0.0006108652451075,-0.0006108652451075,0.0
1761238261307826400,5.090826416015625,-0.0003054326225537,0.0004581489483825,0.0003054326225537
1761238261325865700,5.10886572265625,-0.0003054326225537,0.0006108652451075,0.0
1761238261343904800,5.12690478515625,-0.0004581489483825,0.0,-0.0001527163112768
1761238261361944000,5.144944091796875,-0.0003054326225537,0.0,-0.0004581489483825
1761238261379979000,5.16297900390625,0.0004581489483825,-0.0024434609804302,-0.0001527163112768
1761238261398026200,5.181026123046875,-0.0003054326225537,-0.0003054326225537,0.0006108652451075
1761238261416061400,5.1990615234375,0.0004581489483825,-0.0012217304902151,-0.0004581489483825
1761238261434099500,5.217099365234375,-0.0001527163112768,-0.0001527163112768,0.0006108652451075
1761238261452141000,5.23514111328125,-0.0006108652451075,-0.0007635815418325,0.0001527163112768
1761238261470178800,5.2531787109375,-0.0003054326225537,-0.00137444678694,0.0010690141934901
1761238261488217900,5.2712177734375,0.0004581489483825,-0.0006108652451075,0.0009162978967651
1761238261506246000,5.289245849609375,-0.0003054326225537,0.0003054326225537,-0.0004581489483825
1761238261524296000,5.3072958984375,-0.0003054326225537,0.0,-0.0003054326225537
1761238261542335200,5.325335205078125,-0.0003054326225537,-0.0003054326225537,-0.0012217304902151
1761238261560373000,5.343373046875,0.0009162978967651,0.0009162978967651,0.0006108652451075
1761238261578414000,5.3614140625,0.0001527163112768,-0.0007635815418325,-0.0003054326225537
1761238261596452400,5.379452392578125,-0.0010690141934901,0.00137444678694,-0.0012217304902151
1761238261614491600,5.39749169921875,0.0,-0.0001527163112768,-0.0004581489483825
1761238261632531000,5.415531005859375,-0.0006108652451075,-0.0007635815418325,-0.0003054326225537
1761238261650570500,5.433570556640625,-0.0003054326225537,-0.0007635815418325,-0.0004581489483825
1761238261668609300,5.451609375,-0.0003054326225537,-0.0009162978967651,-0.00137444678694
1761238261686648600,5.469648681640625,0.0,0.00167987938039,0.0003054326225537
1761238261704675800,5.48767578125,0.0004581489483825,-0.0009162978967651,-0.0012217304902151
1761238261722726400,5.505726318359375,-0.0009162978967651,0.001527163083665,0.0009162978967651
1761238261740765700,5.523765625,0.0006108652451075,0.0,0.0001527163112768
1761238261758804500,5.541804443359375,-0.0004581489483825,-0.0001527163112768,0.00167987938039
1761238261776843800,5.55984375,0.0001527163112768,0.00137444678694,-0.0022907445672899
1761238261794883000,5.577883056640625,0.0004581489483825,-0.0001527163112768,-0.0006108652451075
1761238261812921900,5.595921875,0.0004581489483825,0.0006108652451075,-0.0004581489483825
1761238261830960600,5.613960693359375,-0.0004581489483825,0.0009162978967651,0.0003054326225537
1761238261849001500,5.63200146484375,0.0007635815418325,-0.00137444678694,0.0007635815418325
1761238261867039700,5.650039794921875,0.0001527163112768,-0.0021380283869802,0.0001527163112768
1761238261885078500,5.66807861328125,-0.0001527163112768,0.0006108652451075,0.0004581489483825
1761238261903117600,5.68611767578125,0.0,0.0,-0.00137444678694
1761238261921156600,5.704156494140625,-0.0006108652451075,0.001527163083665,-0.0004581489483825
1761238261939193600,5.722193603515625,0.0004581489483825,0.0,0.0003054326225537
1761238261957237500,5.740237548828125,0.0,0.0001527163112768,-0.0006108652451075
1761238261975274000,5.75827392578125,0.0001527163112768,0.0,0.0004581489483825
1761238261993313000,5.77631298828125,0.0007635815418325,0.0009162978967651,0.0
1761238262011352600,5.7943525390625,-0.0001527163112768,0.0003054326225537,-0.0001527163112768
1761238262029391400,5.812391357421875,0.0004581489483825,0.0007635815418325,0.0007635815418325
1761238262047430700,5.8304306640625,-0.0004581489483825,-0.0001527163112768,0.0003054326225537
1761238262065466400,5.84846630859375,-0.00137444678694,0.0009162978967651,-0.0001527163112768
1761238262083509000,5.866509033203125,-0.0003054326225537,-0.0007635815418325,0.0004581489483825
1761238262101545200,5.884545166015625,-0.0006108652451075,0.0,0.0001527163112768
1761238262119589600,5.902589599609375,0.0003054326225537,-0.0003054326225537,0.0004581489483825
1761238262137626400,5.92062646484375,0.0001527163112768,0.0,-0.0001527163112768
1761238262155665200,5.9386650390625,0.0007635815418325,0.0003054326225537,0.0009162978967651
1761238262173702400,5.956702392578125,0.0,-0.0001527163112768,0.0006108652451075
1761238262191743500,5.974743408203125,0.0010690141934901,0.0010690141934901,0.0012217304902151
1761238262209780500,5.992780517578125,-0.0001527163112768,0.0004581489483825,0.0009162978967651
1761238262227822000,6.010822021484375,0.0004581489483825,0.0009162978967651,-0.00137444678694
1761238262245860900,6.02886083984375,-0.0003054326225537,-0.00137444678694,0.0004581489483825
1761238262263899600,6.046899658203125,0.0009162978967651,-0.0007635815418325,-0.0001527163112768
1761238262281938700,6.064938720703125,-0.0001527163112768,-0.0001527163112768,-0.0006108652451075
1761238262299975400,6.082975341796875,0.0006108652451075,-0.0004581489483825,-0.0009162978967651
1761238262318019800,6.101019775390625,-0.0004581489483825,-0.0009162978967651,0.0004581489483825
1761238262336056800,6.119056884765625,0.0,-0.0003054326225537,0.00167987938039
1761238262354095400,6.137095458984375,0.0012217304902151,0.0001527163112768,-0.0006108652451075
1761238262372125200,6.155125244140625,0.0001527163112768,-0.0012217304902151,0.0
1761238262390173200,6.173173095703125,0.0007635815418325,-0.0004581489483825,0.0004581489483825
1761238262408212700,6.191212646484375,0.0007635815418325,0.0004581489483825,0.0010690141934901
1761238262426252000,6.209251953125,0.0001527163112768,-0.0001527163112768,0.0009162978967651
1761238262444291000,6.227291015625,-0.0009162978967651,-0.0003054326225537,-0.0001527163112768
1761238262462329600,6.24532958984375,0.0009162978967651,-0.0003054326225537,-0.0001527163112768
1761238262480373200,6.263373291015625,-0.0001527163112768,-0.0009162978967651,-0.0006108652451075
1761238262498408200,6.281408203125,-0.0004581489483825,-0.00137444678694,-0.0009162978967651
1761238262516447700,6.29944775390625,0.0,0.0009162978967651,-0.0004581489483825
1761238262534486300,6.317486328125,-0.0007635815418325,-0.0004581489483825,0.0003054326225537
1761238262552525600,6.335525634765625,0.0004581489483825,0.0009162978967651,0.0006108652451075
1761238262570564600,6.353564697265625,0.0003054326225537,0.0,0.0006108652451075
1761238262588604200,6.371604248046875,-0.0010690141934901,-0.0007635815418325,0.0001527163112768
1761238262606640600,6.389640625,0.0001527163112768,-0.00137444678694,0.0
1761238262624672000,6.407672119140625,-0.0003054326225537,0.0006108652451075,-0.0006108652451075
1761238262642720800,6.425720703125,-0.0003054326225537,0.0,0.0007635815418325
1761238262660759800,6.443759765625,-0.0003054326225537,0.0,-0.0004581489483825
1761238262678791400,6.46179150390625,-0.0007635815418325,0.0006108652451075,-0.0012217304902151
1761238262696838400,6.47983837890625,-0.0003054326225537,-0.0001527163112768,-0.0007635815418325
1761238262714877700,6.497877685546875,-0.0009162978967651,0.0010690141934901,-0.0004581489483825
1761238262732917000,6.5159169921875,0.0004581489483825,-0.0004581489483825,0.0003054326225537
1761238262750954800,6.533954833984375,-0.0003054326225537,-0.0001527163112768,-0.0003054326225537
1761238262768993800,6.551993896484375,0.0,0.0009162978967651,0.0006108652451075
1761238262787035400,6.570035400390625,0.0007635815418325,0.0012217304902151,0.0006108652451075
1761238262805073000,6.588072998046875,0.0007635815418325,-0.0009162978967651,0.0003054326225537
1761238262823096800,6.606096923828125,-0.0004581489483825,0.0007635815418325,0.0001527163112768
1761238262841139200,6.62413916015625,-0.0010690141934901,0.0,-0.0006108652451075
1761238262859193000,6.642193115234375,0.0007635815418325,0.0007635815418325,0.0
1761238262877230000,6.66022998046875,0.0012217304902151,0.0001527163112768,0.0012217304902151
1761238262895268000,6.67826806640625,0.0003054326225537,-0.00137444678694,-0.0004581489483825
1761238262913307400,6.696307373046875,0.0,0.0001527163112768,-0.0004581489483825
1761238262931346200,6.71434619140625,-0.0004581489483825,-0.0004581489483825,0.0
1761238262949385700,6.7323857421875,-0.0004581489483825,0.0007635815418325,0.0012217304902151
1761238262967424500,6.750424560546875,0.0004581489483825,0.0,-0.0001527163112768
1761238262985460700,6.768460693359375,0.0004581489483825,-0.0006108652451075,-0.0001527163112768
1761238263003502300,6.78650244140625,-0.0006108652451075,0.0001527163112768,-0.0006108652451075
1761238263021542100,6.804542236328125,0.0012217304902151,0.0003054326225537,-0.0001527163112768
1761238263039585800,6.822585693359375,0.0,0.0007635815418325,-0.0003054326225537
1761238263057620000,6.840619873046875,0.0007635815418325,-0.0003054326225537,-0.0004581489483825
1761238263075659300,6.8586591796875,-0.0006108652451075,0.001527163083665,-0.0007635815418325
1761238263093698300,6.8766982421875,-0.0009162978967651,0.0006108652451075,0.0001527163112768
1761238263111736800,6.89473681640625,0.0003054326225537,-0.0006108652451075,-0.0006108652451075
1761238263138796000,6.921796142578125,-0.0003054326225537,-0.0007635815418325,0.0007635815418325
1761238263156835800,6.9398359375,0.0007635815418325,-0.0003054326225537,-0.001527163083665
1761238263174873900,6.957873779296875,0.0,-0.0009162978967651,-0.0003054326225537
1761238263192906800,6.97590673828125,-0.0006108652451075,-0.0009162978967651,-0.0009162978967651
1761238263210951200,6.993951171875,-0.0001527163112768,-0.0001527163112768,-0.0001527163112768
1761238263228993500,7.01199365234375,0.0001527163112768,0.0007635815418325,0.0004581489483825
1761238263247031600,7.030031494140625,0.0,0.0004581489483825,-0.0012217304902151
1761238263265069600,7.048069580078125,0.0,0.0010690141934901,-0.0006108652451075
1761238263283108600,7.066108642578125,0.0010690141934901,0.005192354787141,0.0042760567739605
1761238263301149000,7.08414892578125,0.0007635815418325,0.2139555513858795,0.0861319974064827
1761238263323688400,7.1066884765625,0.0009162978967651,-0.0108428578823804,-0.0080939643085002
1761238263341736700,7.12473681640625,0.0007635815418325,-0.117286130785942,-0.0497855171561241
1761238263359775700,7.142775634765625,0.0001527163112768,0.0378736443817615,0.0140499006956815
1761238263377814500,7.160814453125,0.0003054326225537,-0.0146607663482427,-0.0044287731871008
1761238264424573400,0.099573486328125,-0.0003054326225537,0.0012217304902151,0.0006108652451075
1761238264442870000,0.1178701171875,-0.0004581489483825,-0.0012217304902151,-0.0004581489483825
1761238264461275400,0.136275390625,0.0,-0.0003054326225537,0.0032070425804704
1761238264479441700,0.154441650390625,-0.0003054326225537,-0.0012217304902151,-0.0003054326225537
1761238264497492000,0.172491943359375,-0.0010690141934901,0.00137444678694,-0.0004581489483825
1761238264515530800,0.19053076171875,-0.0004581489483825,0.0007635815418325,0.0
1761238264533569800,0.20856982421875,-0.0003054326225537,-0.0009162978967651,-0.0012217304902151
1761238264551608800,0.22660888671875,-0.0006108652451075,0.0007635815418325,-0.0009162978967651
1761238264569647600,0.244647705078125,-0.0004581489483825,0.0006108652451075,-0.0001527163112768
1761238264587687000,0.26268701171875,0.0009162978967651,0.0,-0.0010690141934901
1761238264605726000,0.280725830078125,-0.0007635815418325,0.0,0.0009162978967651
1761238264623765000,0.298764892578125,0.0012217304902151,-0.0001527163112768,0.0006108652451075
1761238264641792000,0.3167919921875,-0.001527163083665,-0.0004581489483825,-0.0003054326225537
1761238264659843300,0.33484326171875,0.0006108652451075,-0.0009162978967651,0.0009162978967651
1761238264677882000,0.352882080078125,-0.0001527163112768,0.0006108652451075,-0.0001527163112768
1761238264695921400,0.37092138671875,0.0,-0.0012217304902151,0.0
1761238264713960200,0.388960205078125,0.0006108652451075,0.0004581489483825,0.0006108652451075
1761238264731999200,0.406999267578125,-0.0001527163112768,0.0006108652451075,0.0
1761238264750036700,0.42503662109375,0.0003054326225537,0.0004581489483825,-0.0003054326225537
1761238264768078300,0.443078369140625,-0.0001527163112768,0.0025961773935705,0.0004581489483825
1761238264786116600,0.46111669921875,-0.0003054326225537,0.00167987938039,-0.0007635815418325
1761238264804155600,0.47915576171875,-0.0001527163112768,0.0009162978967651,-0.0010690141934901
1761238264822194400,0.4971943359375,-0.0006108652451075,-0.0003054326225537,0.00137444678694
1761238264840233500,0.5152333984375,0.0004581489483825,-0.0009162978967651,-0.00137444678694
1761238264858272500,0.5332724609375,0.0001527163112768,0.0018325957935303,-0.0006108652451075
1761238264876311800,0.551311767578125,-0.0012217304902151,-0.0001527163112768,0.0001527163112768
1761238264894350600,0.5693505859375,0.0004581489483825,0.0003054326225537,0.001527163083665
1761238264912389600,0.5873896484375,-0.0006108652451075,0.0,-0.0007635815418325
1761238264930428400,0.605428466796875,-0.0003054326225537,-0.0004581489483825,-0.0012217304902151
1761238264948467500,0.623467529296875,0.0,0.0004581489483825,0.0
1761238264966506800,0.6415068359375,0.0006108652451075,-0.00167987938039,-0.0003054326225537
1761238264984541700,0.659541748046875,0.0006108652451075,0.0001527163112768,0.0001527163112768
1761238265002584800,0.677584716796875,0.0001527163112768,-0.0003054326225537,0.0003054326225537
1761238265020624100,0.6956240234375,-0.00137444678694,0.0010690141934901,-0.0010690141934901
1761238265038663000,0.713662841796875,0.0004581489483825,-0.0009162978967651,0.0003054326225537
1761238265056702200,0.7317021484375,0.0003054326225537,0.0024434609804302,0.0003054326225537
1761238265074733300,0.7497333984375,-0.0003054326225537,0.0001527163112768,-0.0007635815418325
1761238265092782600,0.767782470703125,-0.0001527163112768,0.0,-0.0006108652451075
1761238265110819000,0.785819091796875,0.0,0.0003054326225537,0.0003054326225537
1761238265128846000,0.80384619140625,-0.0006108652451075,0.0,0.0004581489483825
1761238265146887200,0.82188720703125,-0.0009162978967651,0.0001527163112768,0.0004581489483825
1761238265164936200,0.839936279296875,-0.0006108652451075,-0.0004581489483825,0.0007635815418325
1761238265182975500,0.8579755859375,-0.0006108652451075,0.0001527163112768,-0.0004581489483825
1761238265201014500,0.8760146484375,0.0010690141934901,-0.0009162978967651,0.0006108652451075
1761238265219053600,0.894053466796875,0.0003054326225537,0.0006108652451075,0.00167987938039
1761238265237092400,0.91209228515625,-0.0019853119738399,0.0021380283869802,-0.0010690141934901
1761238265255131400,0.93013134765625,0.0006108652451075,-0.0007635815418325,0.0007635815418325
1761238265273170400,0.94817041015625,-0.0001527163112768,-0.0009162978967651,0.0
1761238265291209000,0.966208984375,-0.0001527163112768,-0.0004581489483825,0.0004581489483825
1761238265309236500,0.984236572265625,0.0007635815418325,-0.0003054326225537,-0.0003054326225537
1761238265327287800,1.002287841796875,0.0003054326225537,0.001527163083665,-0.0009162978967651
1761238265345326600,1.02032666015625,0.0006108652451075,-0.0004581489483825,-0.0003054326225537
1761238265363362800,1.03836279296875,0.001527163083665,0.0007635815418325,0.0006108652451075
1761238265381407500,1.056407470703125,0.0006108652451075,-0.001527163083665,0.0
1761238265399443200,1.074443115234375,-0.0006108652451075,0.0003054326225537,0.0
1761238265417482200,1.092482177734375,0.0001527163112768,0.0003054326225537,0.0012217304902151
1761238265435521500,1.110521484375,-0.0003054326225537,0.0004581489483825,0.00137444678694
1761238265453560800,1.128560791015625,0.0004581489483825,0.0,-0.0001527163112768
1761238265471599600,1.146599609375,0.0001527163112768,-0.0004581489483825,0.0009162978967651
1761238265489638400,1.164638427734375,-0.0004581489483825,0.0007635815418325,-0.0006108652451075
1761238265507677700,1.182677734375,0.0,-0.0001527163112768,0.0007635815418325
1761238265525717000,1.200717041015625,-0.0004581489483825,0.0009162978967651,-0.0003054326225537
1761238265543755800,1.218755859375,-0.0004581489483825,0.00137444678694,0.0003054326225537
1761238265561794800,1.236794921875,0.0,0.0006108652451075,0.0007635815418325
1761238265579833600,1.25483349609375,0.0,0.00137444678694,-0.0009162978967651
1761238265597872600,1.27287255859375,0.0010690141934901,-0.0006108652451075,0.00167987938039
1761238265615911400,1.290911376953125,0.0007635815418325,0.0,-0.0003054326225537
1761238265633951000,1.308950927734375,0.0003054326225537,-0.0012217304902151,-0.0003054326225537
1761238265651990000,1.326989990234375,-0.0007635815418325,0.0003054326225537,0.001527163083665
1761238265670028000,1.345028076171875,0.0004581489483825,0.0003054326225537,0.0004581489483825
1761238265688068900,1.36306884765625,0.0018325957935303,0.0003054326225537,-0.0004581489483825
1761238265706107600,1.381107666015625,0.001527163083665,0.0009162978967651,-0.00137444678694
1761238265724145700,1.399145751953125,-0.0001527163112768,0.001527163083665,0.0006108652451075
1761238265742185000,1.41718505859375,0.0003054326225537,0.0,-0.0006108652451075
1761238265760224000,1.43522412109375,0.0004581489483825,0.0001527163112768,-0.0010690141934901
1761238265778262500,1.453262451171875,-0.0004581489483825,-0.0001527163112768,-0.0007635815418325
1761238265796301800,1.4713017578125,0.0001527163112768,0.00137444678694,-0.0010690141934901
1761238265814340900,1.4893408203125,-0.0006108652451075,-0.0003054326225537,-0.0012217304902151
1761238265832380200,1.507380126953125,0.0001527163112768,0.0001527163112768,0.0012217304902151
1761238265850430000,1.525429931640625,0.0006108652451075,0.0007635815418325,-0.0004581489483825
1761238265868458200,1.543458251953125,0.0001527163112768,0.0001527163112768,-0.0001527163112768
1761238265886497300,1.561497314453125,0.0001527163112768,0.0006108652451075,0.0012217304902151
1761238265904529200,1.579529052734375,-0.0004581489483825,-0.0001527163112768,0.0003054326225537
1761238265922578400,1.597578369140625,-0.0009162978967651,-0.0009162978967651,0.0007635815418325
1761238265940614100,1.6156142578125,0.0001527163112768,0.0003054326225537,0.0009162978967651
1761238265958653200,1.633653076171875,0.0004581489483825,0.0001527163112768,-0.0006108652451075
1761238265976683500,1.65168359375,0.0003054326225537,0.0009162978967651,0.0003054326225537
1761238265994731000,1.66973095703125,0.0,-0.0010690141934901,0.0006108652451075
1761238266012770300,1.687770263671875,0.0,-0.0006108652451075,-0.0004581489483825
1761238266030809300,1.705809326171875,-0.0001527163112768,-0.0004581489483825,-0.0009162978967651
1761238266048848100,1.72384814453125,-0.0009162978967651,-0.0004581489483825,0.0018325957935303
1761238266066887000,1.741886962890625,-0.0007635815418325,0.0003054326225537,0.0003054326225537
1761238266084926000,1.759926025390625,0.0007635815418325,-0.00167987938039,0.00137444678694
1761238266102965500,1.777965576171875,-0.0001527163112768,-0.0001527163112768,0.0001527163112768
1761238266121004500,1.796004638671875,0.0012217304902151,0.0022907445672899,-0.00137444678694
1761238266139043000,1.81404296875,0.0006108652451075,0.00167987938039,-0.0018325957935303
1761238266157082000,1.83208203125,0.0009162978967651,-0.0003054326225537,0.0
1761238266175121200,1.85012109375,0.0,-0.0004581489483825,-0.0001527163112768
1761238266193160400,1.868160400390625,0.0,0.0006108652451075,0.00167987938039
1761238266211199200,1.88619921875,0.0004581489483825,-0.0001527163112768,0.001527163083665
1761238266229238000,1.904238037109375,0.0007635815418325,-0.0009162978967651,-0.0004581489483825
1761238266247277000,1.922277099609375,0.0007635815418325,0.0006108652451075,-0.0004581489483825
1761238266265316000,1.940316162109375,0.00137444678694,-0.0009162978967651,0.0007635815418325
1761238266283352800,1.958352783203125,-0.0004581489483825,-0.0001527163112768,0.0004581489483825
1761238266301396700,1.976396728515625,0.0009162978967651,-0.0010690141934901,-0.0003054326225537
1761238266319433700,1.994433837890625,-0.0009162978967651,-0.0009162978967651,0.0007635815418325
1761238266337472500,2.012472412109375,-0.0007635815418325,-0.0010690141934901,0.0004581489483825
1761238266355511600,2.030511474609375,-0.0010690141934901,-0.0001527163112768,-0.0003054326225537
1761238266373550300,2.04855029296875,-0.0003054326225537,0.0004581489483825,-0.0007635815418325
1761238266391589400,2.06658935546875,0.0004581489483825,0.0003054326225537,0.0003054326225537
1761238266409628000,2.0846279296875,-0.0001527163112768,-0.0003054326225537,0.0004581489483825
1761238266427667200,2.102667236328125,0.0004581489483825,-0.00167987938039,-0.0010690141934901
1761238266445706200,2.120706298828125,0.0012217304902151,-0.0003054326225537,0.0001527163112768
1761238266463745000,2.1387451171875,-0.0006108652451075,-0.0010690141934901,-0.0007635815418325
1761238266481784300,2.156784423828125,-0.00167987938039,0.0007635815418325,0.001527163083665
1761238266499823600,2.17482373046875,-0.0004581489483825,0.00137444678694,-0.0010690141934901
1761238266517862700,2.192862548828125,-0.0009162978967651,0.0006108652451075,-0.00137444678694
1761238266535901200,2.210901123046875,-0.0009162978967651,-0.0009162978967651,0.0
1761238266553940200,2.228940185546875,0.0003054326225537,-0.00137444678694,-0.0003054326225537
1761238266571979000,2.24697900390625,0.0006108652451075,0.0004581489483825,-0.0003054326225537
1761238266590017500,2.265017578125,-0.00167987938039,0.00137444678694,-0.0004581489483825
1761238266608058000,2.28305810546875,0.0,-0.0007635815418325,-0.0021380283869802
1761238266626096000,2.30109619140625,-0.0004581489483825,-0.0012217304902151,-0.0010690141934901
1761238266644127000,2.319126953125,0.0001527163112768,-0.0010690141934901,-0.0006108652451075
1761238266662174500,2.337174560546875,0.0004581489483825,-0.0009162978967651,-0.0003054326225537
1761238266680213200,2.355213134765625,-0.0009162978967651,0.0004581489483825,-0.0001527163112768
1761238266698252500,2.37325244140625,0.0,-0.0010690141934901,0.0012217304902151
1761238266716291300,2.391291259765625,-0.0003054326225537,0.0001527163112768,0.0004581489483825
1761238266734330000,2.409330078125,0.0009162978967651,0.0,-0.0004581489483825
1761238266752369200,2.427369140625,-0.0001527163112768,0.0,0.0007635815418325
1761238266770408000,2.445407958984375,0.0,0.0007635815418325,0.0007635815418325
1761238266788447500,2.463447509765625,-0.0010690141934901,-0.0010690141934901,0.0001527163112768
1761238266806486500,2.481486572265625,-0.0006108652451075,0.0,0.0
1761238266824521000,2.49952099609375,0.0006108652451075,-0.0004581489483825,0.0010690141934901
1761238266842564400,2.517564453125,-0.0003054326225537,0.0007635815418325,-0.0009162978967651
1761238266860603100,2.53560302734375,-0.0007635815418325,-0.0012217304902151,0.0001527163112768
1761238266878642200,2.55364208984375,-0.0007635815418325,-0.0007635815418325,-0.0009162978967651
1761238266896681200,2.57168115234375,0.00137444678694,-0.0004581489483825,-0.0004581489483825
1761238266914720000,2.589719970703125,0.0007635815418325,-0.0018325957935303,0.00137444678694
1761238266932758800,2.6077587890625,0.0003054326225537,0.0004581489483825,0.0
1761238266950798000,2.625798095703125,0.0001527163112768,0.0004581489483825,0.0001527163112768
1761238266968836900,2.6438369140625,-0.00167987938039,-0.0003054326225537,0.0004581489483825
1761238266986876400,2.66187646484375,0.0,-0.0004581489483825,-0.0007635815418325
1761238267004915200,2.679915283203125,0.0,-0.0010690141934901,0.001527163083665
1761238267022954000,2.6979541015625,-0.0004581489483825,0.0,-0.001527163083665
1761238267040993000,2.715992919921875,-0.0012217304902151,-0.0018325957935303,-0.0006108652451075
1761238267059032300,2.7340322265625,-0.0001527163112768,0.0001527163112768,-0.0006108652451075
1761238267077071000,2.752071044921875,0.0006108652451075,-0.0009162978967651,0.0001527163112768
1761238267095110000,2.77010986328125,-0.0004581489483825,0.00137444678694,0.0007635815418325
1761238267113149000,2.78814892578125,0.0007635815418325,0.0010690141934901,0.0003054326225537
1761238267131176200,2.80617626953125,0.0012217304902151,-0.0001527163112768,0.0003054326225537
1761238267149215000,2.824215087890625,-0.0007635815418325,-0.0003054326225537,-0.0004581489483825
1761238267167266000,2.84226611328125,-0.0007635815418325,-0.0007635815418325,0.0007635815418325
1761238267185305000,2.86030517578125,0.0007635815418325,0.0,0.0010690141934901
1761238267203339300,2.87833935546875,-0.0003054326225537,0.00167987938039,-0.0001527163112768
1761238267221387500,2.896387451171875,0.0003054326225537,-0.0012217304902151,0.00137444678694
1761238267239419000,2.9144189453125,-0.0006108652451075,-0.0012217304902151,0.0003054326225537
1761238267257464000,2.932464111328125,-0.0004581489483825,-0.0009162978967651,-0.0006108652451075
1761238267275499800,2.950499755859375,-0.0001527163112768,0.0004581489483825,-0.0003054326225537
1761238267293538800,2.968538818359375,-0.0003054326225537,0.0003054326225537,-0.0007635815418325
1761238267311570200,2.986570068359375,-0.0001527163112768,-0.0010690141934901,0.0007635815418325
1761238267329616600,3.00461669921875,-0.00137444678694,0.001527163083665,0.0
1761238267347656200,3.02265625,0.0009162978967651,0.0001527163112768,-0.0009162978967651
1761238267365694700,3.04069482421875,0.0009162978967651,-0.0018325957935303,-0.0003054326225537
1761238267383733500,3.0587333984375,0.0003054326225537,0.0001527163112768,-0.0012217304902151
1761238267401772300,3.076772216796875,0.0001527163112768,0.0006108652451075,0.0
1761238267419811300,3.094811279296875,0.0010690141934901,-0.0003054326225537,0.0012217304902151
1761238267437850600,3.1128505859375,-0.0006108652451075,-0.0007635815418325,0.0006108652451075
1761238267455890000,3.130889892578125,0.0001527163112768,-0.0003054326225537,-0.0012217304902151
1761238267473928700,3.1489287109375,0.0006108652451075,-0.0004581489483825,-0.0003054326225537
1761238267491967200,3.16696728515625,-0.0003054326225537,0.0022907445672899,0.00137444678694
1761238267510006000,3.185006103515625,0.00137444678694,0.0003054326225537,-0.0007635815418325
1761238267528046300,3.20304638671875,-0.0010690141934901,0.00137444678694,-0.0007635815418325
1761238267546084600,3.221084716796875,0.0,-0.0003054326225537,-0.0007635815418325
1761238267564123100,3.239123046875,0.0009162978967651,0.0001527163112768,0.0007635815418325
1761238267582162400,3.257162353515625,0.001527163083665,0.0,0.0006108652451075
1761238267600201200,3.275201171875,-0.0009162978967651,-0.0007635815418325,0.00137444678694
1761238267618240000,3.293239990234375,0.0009162978967651,-0.0004581489483825,-0.0001527163112768
1761238267636279600,3.311279541015625,0.0003054326225537,0.00167987938039,-0.001527163083665
1761238267654304800,3.3293046875,0.0004581489483825,-0.0003054326225537,0.0006108652451075
1761238267672346600,3.3473466796875,0.00137444678694,0.0004581489483825,0.0004581489483825
1761238267690396400,3.365396484375,-0.0001527163112768,-0.0003054326225537,0.0001527163112768
1761238267708433700,3.38343359375,0.0003054326225537,-0.0004581489483825,-0.0001527163112768
1761238267726477000,3.40147705078125,-0.0010690141934901,0.0007635815418325,-0.0010690141934901
1761238267744509700,3.419509765625,-0.0004581489483825,0.0009162978967651,0.0004581489483825
1761238267762551800,3.4375517578125,0.0004581489483825,-0.0010690141934901,-0.0009162978967651
1761238267780590800,3.4555908203125,0.0006108652451075,0.0003054326225537,-0.0001527163112768
1761238267798635000,3.473635009765625,0.0010690141934901,-0.0003054326225537,-0.0006108652451075
1761238267816657200,3.4916572265625,0.0009162978967651,0.0003054326225537,0.0010690141934901
1761238267834708000,3.5097080078125,0.0010690141934901,-0.0007635815418325,0.0001527163112768
1761238267852747000,3.5277470703125,0.0,0.0001527163112768,-0.00137444678694
1761238267870786000,3.5457861328125,-0.0001527163112768,-0.0007635815418325,0.0001527163112768
1761238267888824600,3.563824462890625,0.0004581489483825,-0.0009162978967651,0.0003054326225537
1761238267906863900,3.58186376953125,0.0009162978967651,-0.0010690141934901,-0.0009162978967651
1761238267924903000,3.59990283203125,0.0003054326225537,0.0010690141934901,-0.00137444678694
1761238267942941700,3.617941650390625,0.0007635815418325,0.0006108652451075,0.0003054326225537
1761238267960980700,3.635980712890625,-0.001527163083665,0.0003054326225537,-0.0004581489483825
1761238267979006700,3.6540068359375,0.0,0.0,-0.0003054326225537
1761238267997058800,3.672058837890625,-0.0009162978967651,-0.0009162978967651,-0.0018325957935303
1761238268015097900,3.690097900390625,-0.0006108652451075,-0.0001527163112768,-0.0003054326225537
1761238268033136600,3.70813671875,-0.0001527163112768,0.001527163083665,-0.0001527163112768
1761238268051175400,3.726175537109375,-0.0003054326225537,0.0010690141934901,-0.0001527163112768
1761238268069214200,3.744214111328125,-0.0007635815418325,0.0012217304902151,0.0009162978967651
1761238268087253200,3.762253173828125,-0.0006108652451075,-0.0019853119738399,-0.001527163083665
1761238268105292500,3.78029248046875,-0.0004581489483825,0.0007635815418325,0.0003054326225537
1761238268123330000,3.798330078125,0.0004581489483825,-0.0010690141934901,0.00137444678694
1761238268141371600,3.81637158203125,0.001527163083665,0.0,-0.0001527163112768
1761238268159409400,3.834409423828125,-0.0010690141934901,0.0004581489483825,0.0006108652451075
1761238268177448200,3.8524482421875,-0.0003054326225537,-0.0001527163112768,-0.0004581489483825
1761238268195487200,3.8704873046875,0.0012217304902151,-0.0010690141934901,-0.0012217304902151
1761238268213524200,3.888524169921875,0.0007635815418325,0.0007635815418325,-0.0012217304902151
1761238268231566800,3.90656689453125,0.00137444678694,-0.0009162978967651,-0.0009162978967651
1761238268249603800,3.924603759765625,0.0012217304902151,0.0004581489483825,0.0
1761238268267639800,3.942639892578125,0.001527163083665,0.0003054326225537,0.0003054326225537
1761238268285684700,3.960684814453125,0.0004581489483825,0.0006108652451075,0.0007635815418325
1761238268303721200,3.97872119140625,0.0004581489483825,0.0,0.0006108652451075
1761238268321759700,3.996759765625,-0.0019853119738399,-0.0009162978967651,0.0001527163112768
1761238268339799300,4.01479931640625,-0.0007635815418325,0.0007635815418325,-0.0012217304902151
1761238268357837800,4.032837890625,-0.0003054326225537,0.0009162978967651,-0.0003054326225537
1761238268375876900,4.050876953125,0.0001527163112768,0.0,-0.0007635815418325
1761238268393916000,4.068916015625,-0.0007635815418325,0.0004581489483825,0.0006108652451075
1761238268411954400,4.086954345703125,0.0021380283869802,0.0006108652451075,0.0006108652451075
1761238268429992400,4.104992431640625,0.0,0.0018325957935303,0.0001527163112768
1761238268448033300,4.123033203125,0.0,0.0007635815418325,0.0007635815418325
1761238268466071600,4.141071533203125,0.0007635815418325,0.0012217304902151,-0.0003054326225537
1761238268484098600,4.1590986328125,0.0012217304902151,0.0004581489483825,0.0007635815418325
1761238268502149600,4.177149658203125,0.0010690141934901,0.0012217304902151,0.0007635815418325
1761238268520188700,4.195188720703125,-0.00167987938039,-0.0007635815418325,0.0001527163112768
1761238268538227500,4.2132275390625,0.0004581489483825,-0.0027488935738801,0.0006108652451075
1761238268556266200,4.231266357421875,0.0001527163112768,-0.0006108652451075,-0.0007635815418325
1761238268574305800,4.249305908203125,-0.0007635815418325,0.0006108652451075,0.0003054326225537
1761238268592343600,4.267343505859375,0.0009162978967651,0.0006108652451075,-0.0007635815418325
1761238268610382800,4.2853828125,-0.0001527163112768,0.0003054326225537,-0.0007635815418325
1761238268628422100,4.303422119140625,0.0001527163112768,-0.0006108652451075,0.0012217304902151
1761238268646455000,4.321455078125,0.0003054326225537,0.0007635815418325,-0.0007635815418325
1761238268664496400,4.339496337890625,-0.0007635815418325,-0.0007635815418325,-0.0001527163112768
1761238268682539000,4.3575390625,0.0010690141934901,0.00167987938039,0.0007635815418325
1761238268700578000,4.375578125,0.0009162978967651,-0.0009162978967651,0.0003054326225537
1761238268718616600,4.393616455078125,0.0006108652451075,-0.0004581489483825,-0.0006108652451075
1761238268736655400,4.4116552734375,-0.0010690141934901,0.0004581489483825,-0.00137444678694
1761238268754694400,4.4296943359375,0.0010690141934901,0.0027488935738801,-0.0003054326225537
1761238268772733400,4.4477333984375,-0.0006108652451075,0.0010690141934901,0.0004581489483825
1761238268790772700,4.465772705078125,-0.0003054326225537,-0.0003054326225537,-0.0001527163112768
1761238268808811300,4.483811279296875,0.0009162978967651,0.0,-0.0009162978967651
1761238268826850600,4.5018505859375,-0.0003054326225537,0.0009162978967651,-0.0009162978967651
1761238268844889600,4.5198896484375,0.0003054326225537,-0.0006108652451075,-0.001527163083665
1761238268862928400,4.537928466796875,0.0001527163112768,0.0003054326225537,-0.0006108652451075
1761238268880967400,4.555967529296875,0.0007635815418325,-0.001527163083665,-0.0006108652451075
1761238268899006200,4.574006103515625,-0.0010690141934901,0.0,-0.0006108652451075
1761238268917045000,4.592044921875,-0.0010690141934901,0.0004581489483825,0.0001527163112768
1761238268935084000,4.610083984375,0.0012217304902151,0.0004581489483825,-0.0007635815418325
1761238268953123000,4.628123046875,-0.0001527163112768,-0.0006108652451075,0.0006108652451075
1761238268973326600,4.64832666015625,-0.00167987938039,0.0024434609804302,-0.0006108652451075
1761238268991454700,4.666454833984375,-0.0004581489483825,0.0,-0.00137444678694
1761238269009493800,4.68449365234375,0.00137444678694,0.0009162978967651,-0.0003054326225537
1761238269027529500,4.702529541015625,-0.0009162978967651,0.0006108652451075,0.0004581489483825
1761238269045574700,4.72057470703125,0.0003054326225537,0.0004581489483825,-0.0003054326225537
1761238269063610400,4.7386103515625,-0.0010690141934901,0.0006108652451075,0.0007635815418325
1761238269081650000,4.75664990234375,-0.0001527163112768,0.0,0.0004581489483825
1761238269099688000,4.77468798828125,0.0006108652451075,0.0009162978967651,0.0003054326225537
1761238269117727000,4.79272705078125,-0.0001527163112768,0.0,0.0004581489483825
1761238269135766000,4.81076611328125,-0.0010690141934901,0.0,-0.0001527163112768
1761238269153805000,4.82880517578125,0.0007635815418325,-0.0010690141934901,-0.0001527163112768
1761238269171843600,4.846843505859375,-0.0007635815418325,0.0003054326225537,0.0003054326225537
1761238269189882400,4.86488232421875,-0.0003054326225537,0.0,0.0006108652451075
1761238269207922700,4.882922607421875,-0.0004581489483825,0.0004581489483825,0.0003054326225537
1761238269225961200,4.900961181640625,0.0003054326225537,-0.0006108652451075,0.0004581489483825
1761238269243999700,4.918999755859375,0.0001527163112768,-0.0001527163112768,-0.0009162978967651
1761238269262038800,4.937038818359375,0.0003054326225537,0.0003054326225537,0.0
1761238269280076300,4.955076171875,0.0,0.0009162978967651,-0.0001527163112768
1761238269298118100,4.9731181640625,0.0006108652451075,0.0018325957935303,-0.001527163083665
1761238269316155000,4.99115478515625,-0.0007635815418325,0.0006108652451075,0.0003054326225537
1761238269334194200,5.009194091796875,0.0006108652451075,0.0004581489483825,-0.0004581489483825
1761238269352235000,5.027235107421875,-0.0001527163112768,0.0006108652451075,-0.001527163083665
1761238269370272500,5.0452724609375,0.0001527163112768,-0.0012217304902151,0.0007635815418325
1761238269388311000,5.06331103515625,0.0007635815418325,0.0,-0.0003054326225537
1761238269406350000,5.08135009765625,0.0003054326225537,-0.0010690141934901,-0.0019853119738399
1761238269424385800,5.0993857421875,-0.0004581489483825,-0.00137444678694,0.0001527163112768
1761238269442428400,5.117428466796875,0.0003054326225537,-0.0001527163112768,0.001527163083665
1761238269460466700,5.135466796875,-0.0004581489483825,0.0006108652451075,-0.0007635815418325
1761238269478505700,5.153505615234375,0.0007635815418325,0.0,0.0
1761238269496544800,5.171544677734375,0.0,-0.0019853119738399,0.0001527163112768
1761238269514572800,5.18957275390625,-0.0004581489483825,-0.0003054326225537,-0.0007635815418325
1761238269532622300,5.207622314453125,0.0007635815418325,0.0,-0.0006108652451075
1761238269550662000,5.225661865234375,0.0006108652451075,0.0003054326225537,-0.0004581489483825
1761238269568700400,5.243700439453125,-0.0001527163112768,0.0007635815418325,-0.0004581489483825
1761238269586739700,5.26173974609375,0.0003054326225537,0.0001527163112768,-0.0001527163112768
1761238269604778000,5.279778076171875,0.00137444678694,-0.0010690141934901,-0.0004581489483825
1761238269622817000,5.297817138671875,0.0003054326225537,0.0007635815418325,-0.0006108652451075
1761238269640856300,5.315856201171875,-0.0003054326225537,0.0004581489483825,-0.0003054326225537
1761238269658895600,5.3338955078125,0.00137444678694,-0.0021380283869802,-0.0004581489483825
1761238269676934000,5.351933837890625,0.0007635815418325,-0.0001527163112768,-0.0001527163112768
1761238269694973000,5.369972900390625,-0.0007635815418325,0.0007635815418325,0.0006108652451075
1761238269713012000,5.388011962890625,-0.0009162978967651,0.0,0.0006108652451075
1761238269731051000,5.406051025390625,0.0004581489483825,0.0007635815418325,0.0
1761238269749089800,5.42408984375,-0.0003054326225537,-0.0004581489483825,0.0004581489483825
1761238269767128600,5.442128662109375,-0.0001527163112768,-0.00137444678694,-0.0010690141934901
1761238269785167400,5.46016748046875,-0.0009162978967651,0.0006108652451075,0.0004581489483825
1761238269803208400,5.47820849609375,-0.0004581489483825,0.0001527163112768,-0.0010690141934901
1761238269821243100,5.4962431640625,-0.0004581489483825,0.0003054326225537,0.0001527163112768
1761238269839284200,5.5142841796875,0.0007635815418325,-0.0006108652451075,-0.0022907445672899
1761238269857323500,5.532323486328125,0.0006108652451075,-0.0001527163112768,-0.0003054326225537
1761238269875362300,5.5503623046875,0.0012217304902151,0.0003054326225537,-0.0004581489483825
1761238269893400800,5.56840087890625,-0.0001527163112768,0.0,0.0004581489483825
1761238269911440100,5.586440185546875,0.0003054326225537,-0.0003054326225537,0.0010690141934901
1761238269929478700,5.604478759765625,0.0007635815418325,0.0,-0.0004581489483825
1761238269947517200,5.62251708984375,0.0007635815418325,-0.0007635815418325,-0.0012217304902151
1761238269965557500,5.6405576171875,0.0004581489483825,-0.0024434609804302,0.0006108652451075
1761238269983595800,5.658595703125,-0.0001527163112768,-0.00137444678694,0.0001527163112768
1761238270001634300,5.67663427734375,0.0010690141934901,-0.0010690141934901,0.0009162978967651
1761238270019662000,5.694662109375,-0.0003054326225537,0.0009162978967651,-0.0007635815418325
1761238270037712400,5.71271240234375,0.0007635815418325,-0.0007635815418325,0.0001527163112768
1761238270055751400,5.73075146484375,0.0003054326225537,-0.0007635815418325,0.0019853119738399
1761238270073790200,5.748790283203125,-0.0010690141934901,0.0006108652451075,0.0001527163112768
1761238270091829200,5.766829345703125,-0.0004581489483825,0.0003054326225537,0.0
1761238270109867300,5.7848671875,-0.0003054326225537,0.0,0.0001527163112768
1761238270127906300,5.80290625,-0.0012217304902151,0.0007635815418325,-0.0006108652451075
1761238270145943000,5.820943115234375,0.0006108652451075,0.0006108652451075,0.0003054326225537
1761238270163993300,5.838993408203125,-0.0003054326225537,-0.001527163083665,-0.0003054326225537
1761238270182011600,5.85701171875,-0.0006108652451075,-0.0003054326225537,-0.0001527163112768
1761238270200062700,5.875062744140625,0.0003054326225537,0.0004581489483825,-0.0003054326225537
1761238270218101800,5.893101806640625,0.0010690141934901,-0.0001527163112768,0.0007635815418325
1761238270236140800,5.911140869140625,-0.0003054326225537,-0.0007635815418325,0.0004581489483825
1761238270254179300,5.929179443359375,-0.0001527163112768,-0.001527163083665,0.0003054326225537
1761238270272218400,5.94721826171875,0.0,0.0007635815418325,-0.0001527163112768
1761238270290257000,5.9652568359375,0.0007635815418325,0.0003054326225537,-0.0004581489483825
1761238270308296700,5.983296630859375,0.00137444678694,-0.0007635815418325,0.0006108652451075
1761238270326334700,6.001334716796875,0.0007635815418325,0.0010690141934901,0.0003054326225537
1761238270344375800,6.019375732421875,-0.0003054326225537,-0.0007635815418325,-0.0006108652451075
1761238270362412800,6.037412841796875,0.0003054326225537,-0.0006108652451075,0.0001527163112768
1761238270380451000,6.055451171875,-0.0003054326225537,0.0006108652451075,0.0004581489483825
1761238270398491600,6.07349169921875,0.0006108652451075,-0.0004581489483825,0.0009162978967651
1761238270416529700,6.09152978515625,-0.0012217304902151,0.0006108652451075,0.0003054326225537
1761238270434568700,6.109568603515625,0.0003054326225537,-0.00167987938039,0.0012217304902151
1761238270452607200,6.127607177734375,-0.0003054326225537,0.0006108652451075,-0.0001527163112768
1761238270741220400,0.060220458984375,-0.0006108652451075,0.00137444678694,-0.0004581489483825
1761238270759271700,0.078271728515625,0.0006108652451075,0.0,-0.0003054326225537
1761238270777305300,0.096305419921875,0.00137444678694,0.0010690141934901,0.0012217304902151
1761238270795349000,0.114348876953125,-0.0004581489483825,-0.0012217304902151,-0.0003054326225537
1761238270813385200,0.13238525390625,0.0007635815418325,0.0001527163112768,0.0012217304902151
1761238270831412700,0.150412841796875,-0.001527163083665,0.0004581489483825,-0.0006108652451075
1761238270849453300,0.168453369140625,-0.0003054326225537,0.0007635815418325,0.0012217304902151
1761238270867499800,0.186499755859375,-0.0001527163112768,-0.0009162978967651,-0.0007635815418325
1761238270885544000,0.2045439453125,-0.0001527163112768,-0.00137444678694,-0.0007635815418325
1761238270903580200,0.222580078125,-0.0001527163112768,-0.0007635815418325,0.0007635815418325
1761238270921618400,0.240618408203125,-0.0006108652451075,-0.0007635815418325,0.0007635815418325
1761238270939657700,0.25865771484375,0.0010690141934901,0.0004581489483825,-0.0003054326225537
1761238270957696500,0.276696533203125,0.0007635815418325,-0.0018325957935303,0.0003054326225537
1761238270975735600,0.294735595703125,0.00167987938039,0.0001527163112768,-0.001527163083665
1761238270993774000,0.312774169921875,-0.0003054326225537,0.0001527163112768,-0.0004581489483825
1761238271011813400,0.3308134765625,-0.0001527163112768,-0.0009162978967651,-0.00167987938039
1761238271029852700,0.348852783203125,0.0004581489483825,0.0009162978967651,0.0006108652451075
1761238271047879200,0.366879150390625,-0.0004581489483825,-0.0004581489483825,0.0007635815418325
1761238271065929700,0.3849296875,0.0,-0.0006108652451075,0.0003054326225537
1761238271083966700,0.402966796875,0.0006108652451075,0.0003054326225537,0.0
1761238271102010000,0.421010009765625,-0.0003054326225537,-0.0009162978967651,0.0003054326225537
1761238271120046600,0.439046630859375,-0.0004581489483825,-0.0012217304902151,0.0004581489483825
1761238271138084900,0.4570849609375,0.0,0.0004581489483825,0.0
1761238271156124400,0.47512451171875,-0.0010690141934901,-0.0004581489483825,-0.0001527163112768
1761238271174163200,0.4931630859375,-0.0012217304902151,0.0007635815418325,-0.0010690141934901
1761238271192202000,0.511201904296875,0.0003054326225537,-0.0004581489483825,0.0004581489483825
1761238271210239500,0.529239501953125,-0.0004581489483825,0.0003054326225537,0.0006108652451075
1761238271228281300,0.54728125,0.0,-0.0003054326225537,0.0006108652451075
1761238271246318300,0.565318359375,-0.0006108652451075,-0.0012217304902151,0.0007635815418325
1761238271264359000,0.58335888671875,-0.00167987938039,0.0,-0.00137444678694
1761238271282396700,0.601396728515625,0.0010690141934901,0.00137444678694,0.0012217304902151
1761238271300435500,0.619435546875,-0.0001527163112768,0.0001527163112768,0.0
1761238271318474200,0.63747412109375,-0.0001527163112768,0.0001527163112768,-0.0006108652451075
1761238271336513000,0.655512939453125,-0.0003054326225537,0.0,-0.0004581489483825
1761238271354550000,0.673550048828125,-0.0007635815418325,-0.0007635815418325,0.0010690141934901
1761238271372591400,0.69159130859375,-0.0006108652451075,0.0001527163112768,0.0001527163112768
1761238271390629600,0.709629638671875,0.0003054326225537,-0.0009162978967651,0.0006108652451075
1761238271408668700,0.727668701171875,0.0006108652451075,-0.0003054326225537,-0.0001527163112768
1761238271426707500,0.74570751953125,0.0006108652451075,-0.00137444678694,0.0
1761238271444746800,0.763746826171875,0.0004581489483825,0.0003054326225537,-0.0004581489483825
1761238271462785300,0.781785400390625,-0.0001527163112768,0.0003054326225537,-0.0004581489483825
1761238271480824300,0.79982421875,0.0003054326225537,0.0001527163112768,-0.0003054326225537
1761238271498862800,0.81786279296875,-0.0001527163112768,0.0,-0.0004581489483825
1761238271516891100,0.83589111328125,-0.0006108652451075,0.0001527163112768,0.0007635815418325
1761238271534941200,0.853941162109375,-0.0010690141934901,0.0003054326225537,0.0007635815418325
1761238271552979500,0.8719794921875,-0.0003054326225537,-0.0006108652451075,-0.0001527163112768
1761238271571018200,0.890018310546875,-0.0003054326225537,-0.0009162978967651,0.0003054326225537
1761238271589057500,0.9080576171875,0.0003054326225537,0.0010690141934901,0.0
1761238271607096300,0.926096435546875,0.0006108652451075,-0.0010690141934901,-0.0004581489483825
1761238271625135000,0.944135009765625,-0.0007635815418325,-0.0009162978967651,0.0007635815418325
1761238271643174000,0.962173828125,-0.0003054326225537,0.0003054326225537,-0.0007635815418325
1761238271661213400,0.98021337890625,-0.0007635815418325,-0.0004581489483825,0.0006108652451075
1761238271679251700,0.998251708984375,-0.0004581489483825,0.0004581489483825,0.0003054326225537
1761238271697290800,1.016290771484375,0.0004581489483825,0.00167987938039,-0.0003054326225537
1761238271715329300,1.034329345703125,0.0006108652451075,0.0010690141934901,-0.0006108652451075
1761238271733369000,1.052369140625,-0.00167987938039,-0.0018325957935303,0.0012217304902151
1761238271751407900,1.070407958984375,-0.0007635815418325,0.0001527163112768,0.0007635815418325
1761238271769446400,1.0884462890625,0.0004581489483825,0.0003054326225537,0.0006108652451075
1761238271787484000,1.10648388671875,0.0004581489483825,-0.0001527163112768,0.0007635815418325
1761238271805524700,1.124524658203125,-0.0003054326225537,-0.001527163083665,-0.0001527163112768
1761238271823562800,1.142562744140625,-0.00137444678694,0.00137444678694,0.0007635815418325
1761238271841601800,1.160601806640625,-0.0001527163112768,-0.0004581489483825,-0.00137444678694
1761238271859640300,1.178640380859375,-0.0006108652451075,0.0007635815418325,0.0010690141934901
1761238271877679900,1.196679931640625,0.0006108652451075,-0.0018325957935303,0.0009162978967651
1761238271895718400,1.214718505859375,0.0,0.0009162978967651,0.0006108652451075
1761238271913757200,1.232757080078125,-0.0001527163112768,-0.0003054326225537,0.0004581489483825
1761238271931795700,1.250795654296875,0.0003054326225537,-0.001527163083665,-0.0003054326225537
1761238271949831000,1.268830810546875,-0.0004581489483825,-0.0003054326225537,-0.0007635815418325
1761238271967866400,1.286866455078125,0.0004581489483825,0.0,-0.001527163083665
1761238271985912600,1.30491259765625,0.0003054326225537,0.0019853119738399,-0.0004581489483825
1761238272003939300,1.322939208984375,0.0001527163112768,0.0001527163112768,0.0006108652451075
1761238272021990400,1.340990478515625,0.0006108652451075,0.0,-0.0007635815418325
1761238272040028400,1.3590283203125,-0.0004581489483825,0.0003054326225537,0.0003054326225537
1761238272058069500,1.377069580078125,-0.0004581489483825,0.0001527163112768,-0.0004581489483825
1761238272076106800,1.395106689453125,-0.0010690141934901,0.0009162978967651,0.0007635815418325
1761238272094146300,1.413146240234375,-0.0006108652451075,0.0,0.0010690141934901
1761238272112181800,1.431181640625,0.0006108652451075,-0.0007635815418325,-0.0001527163112768
1761238272130226400,1.449226318359375,-0.0001527163112768,0.0019853119738399,0.0012217304902151
1761238272148262100,1.46726220703125,0.0004581489483825,0.0001527163112768,0.0003054326225537
1761238272166301700,1.4853017578125,-0.0004581489483825,0.0001527163112768,0.0001527163112768
1761238272184335600,1.503335693359375,0.001527163083665,-0.0001527163112768,0.0003054326225537
1761238272202379000,1.52137890625,0.0001527163112768,-0.0003054326225537,0.0
1761238272220417800,1.539417724609375,-0.0001527163112768,0.0010690141934901,-0.0018325957935303
1761238272238457300,1.557457275390625,-0.0003054326225537,0.0001527163112768,0.0003054326225537
1761238272256495600,1.57549560546875,-0.00137444678694,-0.0003054326225537,0.0004581489483825
1761238272274530600,1.593530517578125,-0.0006108652451075,0.0001527163112768,0.0006108652451075
1761238272292573000,1.611572998046875,0.0001527163112768,0.0,0.0003054326225537
1761238272310612700,1.62961279296875,-0.0009162978967651,-0.0003054326225537,0.0
1761238272328651000,1.647651123046875,-0.0004581489483825,-0.0001527163112768,0.0
1761238272346690000,1.66568994140625,0.0,0.0007635815418325,0.0
1761238272364728600,1.683728515625,0.0010690141934901,0.0004581489483825,-0.0003054326225537
1761238272382768000,1.70176806640625,0.0001527163112768,-0.0006108652451075,-0.001527163083665
1761238272400806700,1.719806640625,-0.0004581489483825,0.0006108652451075,0.0012217304902151
1761238272418845400,1.737845458984375,-0.0003054326225537,0.0003054326225537,0.0007635815418325
1761238272436884000,1.755884033203125,0.0006108652451075,0.0009162978967651,0.0003054326225537
1761238272454923300,1.77392333984375,0.0001527163112768,0.0006108652451075,0.0004581489483825
1761238272472962000,1.791962158203125,0.00137444678694,0.0003054326225537,0.001527163083665
1761238272491000600,1.81000048828125,0.0006108652451075,-0.0004581489483825,0.0004581489483825
1761238272509039400,1.828039306640625,-0.0003054326225537,-0.001527163083665,0.0006108652451075
1761238272527078700,1.84607861328125,0.0010690141934901,-0.0009162978967651,0.0004581489483825
1761238272545117700,1.86411767578125,0.0,-0.0004581489483825,0.0007635815418325
1761238272563156500,1.882156494140625,-0.0006108652451075,0.0009162978967651,0.0004581489483825
1761238272581195000,1.900195068359375,0.0,-0.0004581489483825,0.0003054326225537
1761238272599234600,1.918234619140625,-0.0004581489483825,0.0003054326225537,0.0003054326225537
1761238272617273000,1.936273193359375,-0.0001527163112768,0.0189368221908807,0.0105374250560998
1761238272635311900,1.954311767578125,-0.0018325957935303,0.2206750661134719,0.0911716371774673
1761238272653350100,1.97235009765625,-0.0012217304902151,0.0374154970049858,0.0157297793775796
1761238272671389700,1.9903896484375,0.0,-0.0441350154578685,-0.0201585534960031
1761238272689430000,2.008429931640625,0.0010690141934901,-0.2092213481664657,-0.0939205288887023
1761238272707465700,2.0264658203125,0.001527163083665,-0.0113010071218013,-0.0041233403608202
1761238272725507600,2.044507568359375,0.0007635815418325,-0.0021380283869802,-0.0012217304902151
1761238272743545000,2.062545166015625,-0.0006108652451075,-0.0012217304902151,0.0003054326225537
1761238272761583900,2.080583984375,0.0003054326225537,0.0004581489483825,0.0003054326225537
1761238272779622700,2.09862255859375,-0.0003054326225537,0.00167987938039,0.0004581489483825
1761238272797661400,2.116661376953125,-0.0006108652451075,0.0004581489483825,0.0009162978967651
1761238272815700500,2.134700439453125,-0.0007635815418325,-0.0001527163112768,-0.0009162978967651
1761238272833739000,2.152739013671875,-0.0009162978967651,-0.0004581489483825,-0.0004581489483825
1761238272851768300,2.170768310546875,-0.0001527163112768,0.0003054326225537,0.0006108652451075
1761238272869816800,2.18881689453125,-0.0009162978967651,0.0003054326225537,-0.0001527163112768
1761238272887856600,2.206856689453125,0.0006108652451075,0.0009162978967651,0.0007635815418325
1761238272905894700,2.224894775390625,0.0001527163112768,0.0004581489483825,-0.0007635815418325
1761238272923933200,2.24293310546875,-0.0004581489483825,0.0007635815418325,0.0012217304902151
1761238272941971700,2.2609716796875,-0.0004581489483825,0.0001527163112768,0.0006108652451075
1761238272960010200,2.27901025390625,0.0004581489483825,-0.0003054326225537,0.0007635815418325
1761238272978051000,2.297051025390625,-0.0009162978967651,-0.0006108652451075,0.00167987938039
1761238272996088800,2.3150888671875,0.0003054326225537,0.0009162978967651,-0.00167987938039
1761238273014127600,2.333127685546875,-0.0003054326225537,0.0009162978967651,0.0004581489483825
1761238273032166700,2.351166748046875,-0.0006108652451075,-0.0004581489483825,-0.0001527163112768
1761238273050205200,2.369205078125,-0.00167987938039,-0.0012217304902151,-0.0004581489483825
1761238273068244200,2.387244140625,-0.0004581489483825,-0.00167987938039,-0.0001527163112768
1761238273086283000,2.405282958984375,-0.0006108652451075,-0.0009162978967651,0.0006108652451075
1761238273104322000,2.423322021484375,-0.0006108652451075,-0.0009162978967651,0.0004581489483825
1761238273122360300,2.4413603515625,0.0006108652451075,0.0001527163112768,-0.0003054326225537
1761238273140399400,2.4593994140625,-0.0003054326225537,0.0001527163112768,-0.0006108652451075
1761238273158438000,2.47743798828125,0.0004581489483825,0.0004581489483825,-0.0010690141934901
1761238273176477700,2.495477783203125,0.0006108652451075,-0.0010690141934901,-0.0004581489483825
1761238273194512400,2.513512451171875,0.0003054326225537,-0.00137444678694,0.0001527163112768
1761238273212555000,2.531554931640625,-0.0012217304902151,0.0,0.0021380283869802
1761238273230593500,2.549593505859375,0.0004581489483825,-0.0001527163112768,-0.0006108652451075
1761238273248633000,2.567633056640625,-0.0010690141934901,0.0003054326225537,0.0001527163112768
1761238273266671400,2.58567138671875,-0.0010690141934901,-0.0012217304902151,0.0
1761238273284710400,2.60371044921875,0.00137444678694,0.0003054326225537,0.0012217304902151
1761238273302748700,2.621748779296875,0.0003054326225537,-0.00167987938039,-0.0006108652451075
1761238273320788000,2.6397880859375,-0.0001527163112768,-0.0010690141934901,-0.0001527163112768
1761238273338815200,2.657815185546875,-0.0006108652451075,-0.0001527163112768,-0.0006108652451075
1761238273356853800,2.675853759765625,-0.0007635815418325,-0.0004581489483825,-0.0001527163112768
1761238273374904300,2.693904296875,-0.0006108652451075,-0.0009162978967651,0.0004581489483825
1761238273392943400,2.711943359375,-0.0006108652451075,0.0001527163112768,-0.0004581489483825
1761238273410982100,2.729982177734375,0.0003054326225537,0.0004581489483825,-0.0004581489483825
1761238273429021200,2.748021240234375,-0.0006108652451075,0.0,0.0006108652451075
1761238273447057200,2.76605712890625,-0.0007635815418325,0.0010690141934901,-0.0009162978967651
1761238273465101800,2.784101806640625,0.0004581489483825,-0.0006108652451075,0.0004581489483825
1761238273483137500,2.802137451171875,-0.0004581489483825,0.0012217304902151,-0.0003054326225537
1761238273501176300,2.82017626953125,0.0007635815418325,-0.0004581489483825,0.0004581489483825
1761238273519200800,2.83820068359375,0.0006108652451075,0.0001527163112768,-0.0010690141934901
1761238273537254400,2.85625439453125,-0.0006108652451075,-0.0001527163112768,0.0001527163112768
1761238273555293000,2.87429296875,-0.0003054326225537,0.0021380283869802,0.0
1761238273573332000,2.89233203125,0.0004581489483825,0.0006108652451075,-0.0001527163112768
1761238273591370200,2.910370361328125,-0.0003054326225537,0.00137444678694,0.0007635815418325
1761238273609409500,2.928409423828125,0.0003054326225537,0.0006108652451075,0.0
1761238273627446800,2.94644677734375,-0.0001527163112768,0.0010690141934901,0.0010690141934901
1761238273645488600,2.964488525390625,-0.0004581489483825,-0.0022907445672899,0.0009162978967651
1761238273663525600,2.982525634765625,-0.0004581489483825,0.0021380283869802,0.0007635815418325
1761238273681565400,3.0005654296875,-0.0003054326225537,0.0010690141934901,0.0007635815418325
1761238273699603500,3.018603515625,0.0004581489483825,-0.0009162978967651,-0.0003054326225537
1761238273717642500,3.036642578125,0.0001527163112768,-0.0009162978967651,-0.0003054326225537
1761238273735681000,3.054680908203125,0.0001527163112768,-0.0003054326225537,-0.0004581489483825
1761238273753720300,3.07272021484375,-0.0004581489483825,0.0010690141934901,0.0006108652451075
1761238273771758800,3.0907587890625,0.0009162978967651,0.0,-0.0006108652451075
1761238273789797400,3.10879736328125,0.0003054326225537,-0.0010690141934901,0.0
1761238273807834600,3.126834716796875,-0.0009162978967651,0.0003054326225537,-0.0003054326225537
1761238273825875700,3.144875732421875,0.0007635815418325,0.00167987938039,0.0006108652451075
1761238273843914200,3.162914306640625,0.0001527163112768,-0.0018325957935303,-0.0007635815418325
1761238273861953300,3.180953369140625,0.0007635815418325,-0.0004581489483825,0.0004581489483825
1761238273879990800,3.19899072265625,0.0003054326225537,-0.0009162978967651,0.0001527163112768
1761238273898031900,3.217031982421875,-0.0004581489483825,0.0003054326225537,0.0001527163112768
1761238273916068000,3.235068115234375,-0.0012217304902151,-0.0006108652451075,0.0007635815418325
1761238273934110000,3.25310986328125,0.0006108652451075,0.0004581489483825,-0.0006108652451075
1761238273952132400,3.27113232421875,0.0001527163112768,0.0021380283869802,0.0009162978967651
1761238273970188300,3.289188232421875,-0.0006108652451075,0.0004581489483825,0.0003054326225537
1761238273988226000,3.30722607421875,-0.0003054326225537,-0.0001527163112768,0.0007635815418325
1761238274006263800,3.325263916015625,0.0007635815418325,-0.0021380283869802,0.0004581489483825
1761238274024290600,3.34329052734375,0.0003054326225537,0.0001527163112768,-0.0001527163112768
1761238274042341600,3.361341552734375,-0.0007635815418325,-0.0007635815418325,0.0
1761238274060380200,3.379380126953125,-0.0009162978967651,-0.00167987938039,0.0003054326225537
1761238274078419200,3.397419189453125,0.0009162978967651,-0.0004581489483825,0.0007635815418325
1761238274096457500,3.41545751953125,-0.0003054326225537,0.0,0.0006108652451075
1761238274114493400,3.433493408203125,-0.0004581489483825,-0.0004581489483825,-0.0010690141934901
1761238274132535600,3.45153564453125,0.0004581489483825,0.0,0.0004581489483825
1761238274150574600,3.46957470703125,-0.0009162978967651,-0.0001527163112768,0.0007635815418325
1761238274168612900,3.48761279296875,-0.0001527163112768,0.0003054326225537,0.0009162978967651
1761238274186645200,3.505645263671875,0.0006108652451075,-0.0001527163112768,0.0001527163112768
1761238274204691200,3.523691162109375,0.0004581489483825,0.0001527163112768,-0.0004581489483825
1761238274222729700,3.541729736328125,0.0003054326225537,0.0001527163112768,0.0003054326225537
1761238274240768800,3.559768798828125,0.0004581489483825,-0.0006108652451075,0.0012217304902151
1761238274258807600,3.5778076171875,-0.0001527163112768,-0.0007635815418325,-0.0018325957935303
1761238274276846000,3.59584619140625,-0.0006108652451075,0.0,0.0009162978967651
1761238274294880000,3.6138798828125,-0.0012217304902151,0.0001527163112768,0.0009162978967651
1761238274312923400,3.63192333984375,0.0004581489483825,-0.0003054326225537,-0.0004581489483825
1761238274330962700,3.649962646484375,-0.0006108652451075,-0.0004581489483825,0.0007635815418325
1761238274349001500,3.66800146484375,0.0003054326225537,0.0012217304902151,-0.0009162978967651
1761238274367040300,3.686040283203125,-0.0003054326225537,0.0001527163112768,-0.0001527163112768
1761238274385078800,3.704078857421875,0.0006108652451075,0.0009162978967651,-0.00137444678694
1761238274403118300,3.722118408203125,0.0004581489483825,0.0001527163112768,0.0006108652451075
1761238274421156600,3.740156494140625,0.0,-0.0004581489483825,-0.0001527163112768
1761238274439195400,3.7581953125,0.0006108652451075,0.0001527163112768,0.0001527163112768
1761238274457234000,3.77623388671875,-0.0004581489483825,-0.0012217304902151,-0.0004581489483825
1761238274475273200,3.794273193359375,-0.0001527163112768,-0.0010690141934901,-0.0003054326225537
1761238274493312000,3.81231201171875,0.0004581489483825,-0.0009162978967651,0.0003054326225537
1761238274511351000,3.83035107421875,-0.0001527163112768,-0.0003054326225537,0.0003054326225537
1761238274529389300,3.848389404296875,-0.0004581489483825,-0.0004581489483825,0.0003054326225537
1761238274547428400,3.866428466796875,-0.0004581489483825,-0.0012217304902151,0.0019853119738399
1761238274565464800,3.88446484375,0.0001527163112768,0.0006108652451075,0.00167987938039
1761238274583506000,3.902505859375,0.0006108652451075,-0.0012217304902151,-0.0006108652451075
1761238274601547800,3.9205478515625,0.0004581489483825,0.0004581489483825,-0.0006108652451075
1761238274619581000,3.938580810546875,-0.0007635815418325,0.0,0.001527163083665
1761238274637625300,3.956625244140625,0.0007635815418325,0.0012217304902151,-0.0004581489483825
1761238274655661000,3.9746611328125,-0.0001527163112768,-0.0012217304902151,0.0003054326225537
1761238274673699800,3.992699951171875,-0.0004581489483825,0.0009162978967651,-0.00137444678694
1761238274691735600,4.010735595703125,-0.0006108652451075,-0.0010690141934901,0.0006108652451075
1761238274709777700,4.028777587890625,0.0012217304902151,-0.0004581489483825,-0.0001527163112768
1761238274727816400,4.04681640625,0.0006108652451075,0.0,-0.0004581489483825
1761238274745855000,4.06485498046875,0.0006108652451075,0.0006108652451075,0.0006108652451075
1761238274763894500,4.08289453125,0.0004581489483825,0.0004581489483825,0.00137444678694
1761238274781930000,4.100929931640625,-0.0003054326225537,0.0004581489483825,0.0003054326225537
1761238274799974100,4.11897412109375,0.0001527163112768,0.0007635815418325,0.0001527163112768
1761238274818011400,4.137011474609375,0.0003054326225537,0.0003054326225537,-0.0012217304902151
1761238274836049700,4.155049560546875,-0.0007635815418325,0.0009162978967651,0.0006108652451075
1761238274854085400,4.17308544921875,0.0004581489483825,0.0012217304902151,-0.0004581489483825
1761238274872127200,4.191127197265625,0.0003054326225537,0.0007635815418325,-0.0001527163112768
1761238274890165500,4.20916552734375,-0.0001527163112768,-0.0006108652451075,-0.0001527163112768
1761238274908205300,4.227205322265625,0.0006108652451075,0.0010690141934901,0.0009162978967651
1761238274926243300,4.245243408203125,-0.0007635815418325,0.0001527163112768,0.0004581489483825
1761238274944282000,4.2632822265625,0.0006108652451075,0.0004581489483825,-0.0004581489483825
1761238274962320600,4.281320556640625,0.0003054326225537,-0.0012217304902151,-0.0001527163112768
1761238274980360200,4.299360107421875,0.0003054326225537,0.0001527163112768,0.0004581489483825
1761238274998398700,4.317398681640625,0.0,-0.0001527163112768,0.0
1761238275016437500,4.3354375,0.0012217304902151,-0.0001527163112768,-0.0003054326225537
1761238275034465000,4.353465087890625,-0.0007635815418325,-0.0003054326225537,0.0007635815418325
1761238275052515600,4.371515625,0.0003054326225537,0.0001527163112768,0.0
1761238275070554000,4.38955419921875,0.0007635815418325,0.001527163083665,0.0001527163112768
1761238275088592600,4.407592529296875,0.0004581489483825,-0.0001527163112768,-0.0007635815418325
1761238275106631200,4.425631103515625,-0.0003054326225537,-0.0001527163112768,0.0006108652451075
1761238275124665600,4.44366552734375,0.001527163083665,-0.0007635815418325,0.0003054326225537
1761238275142709000,4.461708984375,-0.0003054326225537,-0.0001527163112768,-0.0001527163112768
1761238275160748000,4.479748046875,0.0007635815418325,0.0004581489483825,0.0003054326225537
1761238275178786600,4.49778662109375,-0.0004581489483825,-0.00167987938039,-0.0012217304902151
1761238275196826000,4.515826171875,-0.0012217304902151,0.0010690141934901,0.0006108652451075
1761238275214864400,4.533864501953125,0.0001527163112768,0.0001527163112768,0.0003054326225537
1761238275232903200,4.551903076171875,0.0003054326225537,0.0009162978967651,0.0007635815418325
1761238275250941700,4.569941650390625,-0.0004581489483825,0.0004581489483825,0.0004581489483825
1761238275268981200,4.587981201171875,0.0004581489483825,0.0009162978967651,0.0004581489483825
1761238275287019800,4.606019775390625,0.0012217304902151,0.0022907445672899,-0.0009162978967651
1761238275305058300,4.624058349609375,-0.0004581489483825,0.0,-0.0006108652451075
1761238275323096800,4.642096923828125,0.0006108652451075,-0.0003054326225537,0.0
1761238275341136400,4.660136474609375,-0.0003054326225537,0.0009162978967651,0.0004581489483825
1761238275359163000,4.678162841796875,0.0,0.0009162978967651,0.0001527163112768
1761238275377213700,4.696213623046875,-0.0003054326225537,0.0003054326225537,0.0006108652451075
1761238275395252200,4.714252197265625,0.0003054326225537,0.0007635815418325,0.0006108652451075
1761238275413291800,4.732291748046875,0.0007635815418325,0.0012217304902151,0.0006108652451075
1761238275431330000,4.750330078125,-0.0006108652451075,0.0001527163112768,0.0003054326225537
1761238275449367000,4.768366943359375,0.00137444678694,0.0,-0.0007635815418325
1761238275467408400,4.786408447265625,-0.0003054326225537,0.0,-0.0003054326225537
1761238275485447400,4.804447509765625,0.0006108652451075,0.0006108652451075,-0.0001527163112768
1761238275503485400,4.8224853515625,-0.0004581489483825,-0.0001527163112768,-0.0007635815418325
1761238275521512200,4.84051220703125,-0.0001527163112768,-0.0003054326225537,-0.0012217304902151
1761238275539562500,4.8585625,-0.0003054326225537,-0.0007635815418325,0.0001527163112768
1761238275557601800,4.876601806640625,0.0009162978967651,-0.0006108652451075,-0.001527163083665
1761238275575640600,4.894640625,0.0007635815418325,-0.0004581489483825,0.0
1761238275593679400,4.912679443359375,0.0004581489483825,-0.0003054326225537,0.0
1761238275611717600,4.930717529296875,0.0007635815418325,0.001527163083665,-0.0003054326225537
1761238275629757000,4.9487568359375,0.0004581489483825,0.0009162978967651,0.00137444678694
1761238275647795500,4.96679541015625,0.0,0.0009162978967651,-0.0001527163112768
1761238275665834500,4.98483447265625,-0.0003054326225537,0.0010690141934901,-0.0001527163112768
1761238275683873000,5.002873046875,-0.0006108652451075,-0.0010690141934901,-0.00137444678694
1761238275701912600,5.02091259765625,-0.0012217304902151,0.0007635815418325,0.0007635815418325
1761238275719949800,5.03894970703125,0.0,0.0006108652451075,-0.0009162978967651
1761238275737990700,5.05699072265625,-0.0004581489483825,0.0001527163112768,0.0
1761238275756025000,5.075025146484375,0.0007635815418325,0.0004581489483825,-0.0004581489483825
1761238275774070500,5.093070556640625,-0.0004581489483825,0.00137444678694,0.0
1761238275792106000,5.11110595703125,0.0006108652451075,0.0,0.0007635815418325
1761238275810144500,5.12914453125,0.0003054326225537,-0.0009162978967651,0.0004581489483825
1761238275828183000,5.14718310546875,0.0,-0.0006108652451075,0.0004581489483825
1761238275846223000,5.16522314453125,-0.0007635815418325,-0.0001527163112768,0.0006108652451075
1761238275864261400,5.183261474609375,0.0007635815418325,-0.0006108652451075,0.0004581489483825
1761238275882300200,5.201300048828125,0.0007635815418325,-0.0012217304902151,-0.001527163083665
1761238275900339000,5.2193388671875,-0.0004581489483825,0.0006108652451075,-0.0003054326225537
1761238275918375200,5.237375244140625,-0.0001527163112768,0.0010690141934901,-0.0006108652451075
1761238275936419300,5.25541943359375,-0.0003054326225537,0.0001527163112768,-0.0004581489483825
1761238275954449000,5.273448974609375,0.0012217304902151,-0.0004581489483825,0.0003054326225537
1761238275972496400,5.291496337890625,0.0007635815418325,0.0003054326225537,0.0
1761238275990532900,5.309532958984375,-0.0009162978967651,-0.0010690141934901,-0.0006108652451075
1761238276008575700,5.32757568359375,0.0,0.0006108652451075,-0.0007635815418325
1761238276026614500,5.345614501953125,0.0006108652451075,0.0003054326225537,0.0003054326225537
1761238276044649000,5.36364892578125,-0.0006108652451075,-0.0012217304902151,0.0006108652451075
1761238276062688300,5.381688232421875,-0.0007635815418325,0.0009162978967651,-0.0003054326225537
1761238276080726800,5.399726806640625,0.0001527163112768,0.0,0.0006108652451075
1761238276098765300,5.417765380859375,-0.0001527163112768,-0.0009162978967651,0.0006108652451075
1761238276116803800,5.435803955078125,0.0001527163112768,-0.0009162978967651,0.0006108652451075
1761238276134843400,5.453843505859375,-0.0006108652451075,-0.0004581489483825,0.0006108652451075
1761238276152881700,5.471881591796875,-0.0007635815418325,0.001527163083665,-0.001527163083665
1761238276170920200,5.489920166015625,0.0006108652451075,0.0,0.0006108652451075
1761238276188943400,5.507943359375,0.0003054326225537,-0.0001527163112768,-0.0001527163112768
1761238276206998800,5.525998779296875,0.0006108652451075,-0.0004581489483825,-0.0009162978967651
1761238276225037300,5.544037353515625,0.0006108652451075,-0.0010690141934901,-0.00137444678694
1761238276243076000,5.562076171875,0.0003054326225537,-0.0001527163112768,0.0004581489483825
1761238276261114000,5.580114013671875,0.0003054326225537,-0.0001527163112768,-0.0004581489483825
1761238276279153400,5.5981533203125,-0.0007635815418325,0.0001527163112768,0.00137444678694
1761238276297192000,5.61619189453125,0.0004581489483825,-0.001527163083665,-0.0003054326225537
1761238276315230700,5.634230712890625,0.0004581489483825,-0.0004581489483825,-0.0006108652451075
1761238276333269500,5.65226953125,-0.0006108652451075,-0.0004581489483825,-0.0001527163112768
1761238276351309000,5.67030908203125,0.0003054326225537,0.0007635815418325,-0.0004581489483825
1761238276369347000,5.68834716796875,0.0012217304902151,0.0,-0.0010690141934901
1761238276387382800,5.7063828125,0.0001527163112768,0.0001527163112768,0.0001527163112768
1761238276405428000,5.724427978515625,0.0006108652451075,-0.0006108652451075,-0.0003054326225537
1761238276423461000,5.742461181640625,0.0006108652451075,0.0006108652451075,0.0004581489483825
1761238276441505300,5.76050537109375,-0.0004581489483825,0.0006108652451075,-0.0004581489483825
1761238276459541200,5.778541259765625,0.0003054326225537,-0.0004581489483825,0.0006108652451075
1761238276477579500,5.79657958984375,0.0006108652451075,0.0,-0.0004581489483825
1761238276495618800,5.814618896484375,0.0007635815418325,-0.0004581489483825,-0.0003054326225537
1761238276513657600,5.83265771484375,0.0003054326225537,-0.0007635815418325,-0.0006108652451075
1761238276531696400,5.8506962890625,-0.0004581489483825,-0.0006108652451075,-0.0004581489483825
1761238276549735000,5.86873486328125,0.001527163083665,-0.0001527163112768,0.0006108652451075
1761238276567777500,5.886777587890625,0.0007635815418325,0.00137444678694,-0.0004581489483825
1761238276585810000,5.904809814453125,-0.0006108652451075,0.0004581489483825,0.0001527163112768
1761238276603854600,5.9228544921875,0.001527163083665,0.0006108652451075,0.0003054326225537
1761238276621887200,5.94088720703125,-0.0006108652451075,-0.00137444678694,0.00167987938039
1761238276639931400,5.958931396484375,0.0012217304902151,-0.0022907445672899,-0.0004581489483825
1761238276657968400,5.976968505859375,-0.0001527163112768,-0.0009162978967651,0.0006108652451075
1761238276676000800,5.995000732421875,0.0004581489483825,-0.001527163083665,0.0003054326225537
1761238276694031600,6.013031494140625,0.0006108652451075,0.0012217304902151,-0.0012217304902151
1761238276712084200,6.031084228515625,0.0003054326225537,-0.0009162978967651,-0.0009162978967651
1761238276730123000,6.049123046875,0.0009162978967651,0.0007635815418325,0.0
1761238276748161500,6.06716162109375,-0.0009162978967651,-0.0001527163112768,0.0001527163112768
1761238276766200300,6.085200439453125,-0.0007635815418325,0.0004581489483825,0.0
1761238276784236800,6.10323681640625,0.0004581489483825,-0.0007635815418325,0.001527163083665
1761238276802281200,6.12128125,-0.0003054326225537,-0.0003054326225537,0.0006108652451075
1761238276820316400,6.13931640625,0.0012217304902151,0.0001527163112768,0.0001527163112768
1761238276838355500,6.15735546875,-0.0003054326225537,0.0,0.0006108652451075
1761238276856391200,6.17539111328125,-0.0004581489483825,0.0004581489483825,0.0003054326225537
1761238276874429700,6.1934296875,0.0006108652451075,-0.0010690141934901,0.0006108652451075
1761238276892472000,6.21147216796875,0.0003054326225537,0.0009162978967651,-0.0009162978967651
1761238276910510600,6.229510498046875,0.0001527163112768,0.001527163083665,-0.0009162978967651
1761238276928549600,6.247549560546875,-0.0003054326225537,0.0001527163112768,-0.0001527163112768
1761238276946588200,6.265588134765625,-0.0004581489483825,-0.0001527163112768,-0.00137444678694
1761238276964626700,6.283626708984375,0.0012217304902151,0.0010690141934901,-0.0003054326225537
1761238276982665700,6.301665771484375,0.0004581489483825,0.0001527163112768,0.0
1761238277000705000,6.319705078125,0.0,-0.0004581489483825,-0.0001527163112768
1761238277018743300,6.337743408203125,0.0004581489483825,0.0007635815418325,-0.0007635815418325
1761238277036782300,6.3557822265625,-0.0004581489483825,0.0003054326225537,0.0006108652451075
1761238277054820900,6.37382080078125,-0.0007635815418325,0.0004581489483825,-0.0001527163112768
1761238277072860000,6.39185986328125,-0.0001527163112768,0.0003054326225537,-0.0004581489483825
1761238277090895600,6.4098955078125,-0.0004581489483825,-0.0009162978967651,-0.0001527163112768
1761238277108939300,6.427939208984375,-0.0003054326225537,0.0003054326225537,0.0006108652451075
1761238277126975200,6.445975341796875,0.0001527163112768,-0.0006108652451075,0.0007635815418325
1761238277145014800,6.464014892578125,-0.0001527163112768,0.0,0.0006108652451075
1761238277163040300,6.482040283203125,-0.0001527163112768,-0.0009162978967651,0.0007635815418325
1761238277181095200,6.50009521484375,-0.0006108652451075,-0.001527163083665,-0.0001527163112768
1761238277199131000,6.518130859375,0.0001527163112768,-0.0009162978967651,0.0006108652451075
1761238277217170200,6.536170166015625,-0.0001527163112768,-0.0001527163112768,-0.00137444678694
1761238277235208400,6.55420849609375,0.0006108652451075,0.0004581489483825,-0.0001527163112768
1761238277253244400,6.572244384765625,0.0009162978967651,-0.0006108652451075,0.0004581489483825
1761238277271288800,6.590288818359375,-0.0009162978967651,-0.0010690141934901,-0.0004581489483825
1761238277289322200,6.608322265625,-0.0001527163112768,-0.0007635815418325,0.0010690141934901
1761238277307364000,6.626364013671875,-0.0001527163112768,-0.0004581489483825,0.0007635815418325
1761238277325404200,6.644404052734375,0.0003054326225537,-0.0007635815418325,0.0
1761238277343429000,6.66242919921875,-0.0007635815418325,0.0001527163112768,-0.0006108652451075
1761238277361468400,6.680468505859375,-0.0009162978967651,0.0012217304902151,0.0004581489483825
1761238277379519000,6.69851904296875,0.0001527163112768,0.0006108652451075,0.0007635815418325
1761238277397557500,6.7165576171875,-0.0007635815418325,0.1175915598869323,0.0529925599694252
1761238277415596000,6.734595947265625,-0.0009162978967651,-0.0068722339347004,0.0025961773935705
1761238277433635000,6.752635009765625,0.0001527163112768,0.005192354787141,0.0030543261673301
1761238277451671300,6.77067138671875,-0.0006108652451075,-0.0006108652451075,-0.0009162978967651
1761238277469715500,6.788715576171875,0.0,-0.0294742472469806,-0.0140499006956815
1761238277487739400,6.806739501953125,0.0024434609804302,-0.2373211532831192,-0.1056796908378601
1761238277506025000,6.82502490234375,-0.0018325957935303,-0.0012217304902151,0.0192422550171613
1761238281689203000,0.127202880859375,0.0019853119738399,-0.0022907445672899,0.0018325957935303
1761238281707548000,0.1455478515625,-0.0004581489483825,-0.0007635815418325,-0.0003054326225537
1761238281725954000,0.1639541015625,-0.0007635815418325,0.0001527163112768,-0.0004581489483825
1761238281744358000,0.18235791015625,-0.0004581489483825,-0.0001527163112768,0.0004581489483825
1761238281762757400,0.20075732421875,-0.0003054326225537,-0.0012217304902151,0.0003054326225537
1761238281781156900,0.219156982421875,-0.0009162978967651,-0.0006108652451075,-0.0003054326225537
1761238281799556400,0.237556396484375,-0.0003054326225537,-0.0001527163112768,-0.0006108652451075
1761238281817952500,0.255952392578125,0.0010690141934901,-0.0007635815418325,0.0
1761238281836084200,0.274084228515625,-0.0004581489483825,-0.0001527163112768,0.0003054326225537
1761238281854123300,0.292123291015625,0.0006108652451075,-0.0004581489483825,-0.0003054326225537
1761238281872161500,0.31016162109375,0.0,0.0012217304902151,0.0006108652451075
1761238281890200000,0.328199951171875,-0.0004581489483825,-0.0003054326225537,0.0
1761238281908239000,0.346239013671875,0.0006108652451075,0.0003054326225537,-0.0004581489483825
1761238281926277600,0.364277587890625,0.0007635815418325,-0.0009162978967651,-0.0001527163112768
1761238281944316400,0.38231640625,-0.0003054326225537,0.0,0.0
1761238281962355500,0.40035546875,0.0,0.0009162978967651,-0.0001527163112768
1761238281980393700,0.418393798828125,0.0001527163112768,-0.00137444678694,0.0004581489483825
1761238281998432300,0.436432373046875,0.0007635815418325,0.0006108652451075,-0.0007635815418325
1761238282016471000,0.454470947265625,0.0009162978967651,0.0006108652451075,-0.0007635815418325
1761238282034509800,0.472509765625,-0.0004581489483825,0.0001527163112768,-0.0003054326225537
1761238282052548400,0.49054833984375,-0.0004581489483825,0.0007635815418325,0.0003054326225537
1761238282070574600,0.50857470703125,0.0009162978967651,0.00137444678694,0.0004581489483825
1761238282088625200,0.526625244140625,0.0001527163112768,-0.0001527163112768,0.0006108652451075
1761238282106665000,0.5446650390625,0.0003054326225537,-0.0009162978967651,-0.0009162978967651
1761238282124703200,0.562703125,0.0,-0.0001527163112768,0.0
1761238282142742300,0.5807421875,-0.0021380283869802,-0.0001527163112768,0.0007635815418325
1761238282160779300,0.598779296875,-0.0003054326225537,-0.00137444678694,-0.0006108652451075
1761238282178820600,0.616820556640625,0.0006108652451075,0.0001527163112768,0.001527163083665
1761238282196858400,0.6348583984375,-0.0001527163112768,0.0009162978967651,0.0001527163112768
1761238282214896400,0.652896484375,0.0010690141934901,-0.00167987938039,0.0004581489483825
1761238282232935200,0.67093505859375,-0.0001527163112768,-0.00167987938039,-0.0001527163112768
1761238282250974000,0.688973876953125,0.0010690141934901,0.00167987938039,0.0001527163112768
1761238282269012700,0.7070126953125,0.001527163083665,0.00137444678694,0.0004581489483825
1761238282287051000,0.725051025390625,0.0006108652451075,-0.0018325957935303,0.0001527163112768
1761238282305090300,0.74309033203125,-0.0001527163112768,0.0010690141934901,0.0
1761238282323124000,0.7611240234375,-0.0001527163112768,-0.0010690141934901,0.0007635815418325
1761238282341169200,0.779169189453125,0.0007635815418325,0.0004581489483825,-0.0004581489483825
1761238282359206100,0.7972060546875,0.0001527163112768,0.0004581489483825,-0.0009162978967651
1761238282377235200,0.815235107421875,-0.0001527163112768,-0.0004581489483825,0.0001527163112768
1761238282395279400,0.833279296875,-0.00137444678694,-0.0001527163112768,-0.0006108652451075
1761238282413317000,0.851317138671875,0.0004581489483825,-0.0003054326225537,-0.0021380283869802
1761238282431348700,0.8693486328125,0.0001527163112768,0.0,0.0010690141934901
1761238282449399300,0.8873994140625,-0.0006108652451075,0.0003054326225537,0.0006108652451075
1761238282467438000,0.90543798828125,0.0006108652451075,-0.0007635815418325,0.0
1761238282485476400,0.923476318359375,-0.0006108652451075,0.0006108652451075,-0.001527163083665
1761238282503515400,0.941515380859375,0.0012217304902151,-0.0001527163112768,0.0006108652451075
1761238282521554200,0.95955419921875,0.0009162978967651,0.0003054326225537,0.0009162978967651
1761238282539593000,0.977593017578125,-0.001527163083665,-0.0032070425804704,0.0006108652451075
1761238282557631500,0.995631591796875,0.0006108652451075,0.0003054326225537,0.0012217304902151
1761238282575670000,1.013669921875,-0.0004581489483825,-0.0006108652451075,-0.0001527163112768
1761238282593708500,1.03170849609375,0.0,0.0001527163112768,-0.0012217304902151
1761238282611747600,1.04974755859375,0.0,0.0001527163112768,-0.0003054326225537
1761238282629786000,1.0677861328125,-0.0001527163112768,0.0007635815418325,-0.00137444678694
1761238282647824400,1.085824462890625,0.0004581489483825,-0.00137444678694,-0.0001527163112768
1761238282665863200,1.10386328125,-0.0009162978967651,-0.0003054326225537,0.0009162978967651
1761238282683901700,1.121901611328125,-0.0001527163112768,-0.0012217304902151,0.0003054326225537
1761238282701940700,1.139940673828125,-0.0006108652451075,0.0004581489483825,-0.0006108652451075
1761238282719979500,1.1579794921875,0.0001527163112768,-0.0004581489483825,0.0019853119738399
1761238282738018300,1.176018310546875,-0.0006108652451075,0.0006108652451075,-0.0012217304902151
1761238282756056800,1.194056884765625,-0.0003054326225537,0.00137444678694,-0.0009162978967651
1761238282774095600,1.212095703125,-0.001527163083665,0.0010690141934901,-0.0001527163112768
1761238282792134000,1.2301337890625,-0.0007635815418325,-0.00137444678694,-0.0007635815418325
1761238282810172700,1.248172607421875,0.0012217304902151,-0.0007635815418325,-0.0006108652451075
1761238282828211000,1.2662109375,0.0006108652451075,-0.0007635815418325,0.0019853119738399
1761238282846250500,1.28425048828125,-0.0006108652451075,-0.0024434609804302,-0.00137444678694
1761238282864288800,1.302288818359375,-0.001527163083665,-0.00137444678694,0.0009162978967651
1761238282882326300,1.320326171875,-0.00167987938039,-0.0003054326225537,-0.0001527163112768
1761238282900360000,1.33835986328125,0.0001527163112768,-0.0001527163112768,0.0006108652451075
1761238282918404900,1.35640478515625,-0.0012217304902151,0.0001527163112768,-0.0003054326225537
1761238282936443400,1.374443359375,-0.0007635815418325,0.0001527163112768,0.0
1761238282954482200,1.392482177734375,0.0010690141934901,0.00167987938039,-0.0003054326225537
1761238282972521000,1.41052099609375,0.00167987938039,-0.0001527163112768,0.0010690141934901
1761238282990557400,1.428557373046875,0.0006108652451075,0.0009162978967651,0.0010690141934901
1761238283008599600,1.446599609375,-0.0010690141934901,0.0004581489483825,0.0006108652451075
1761238283026636800,1.46463671875,-0.0003054326225537,-0.0001527163112768,-0.0012217304902151
1761238283044674000,1.482674072265625,0.0001527163112768,0.0,0.0001527163112768
1761238283062715000,1.50071484375,0.0001527163112768,0.0006108652451075,-0.0001527163112768
1761238283080753000,1.5187529296875,0.0,0.0007635815418325,0.0018325957935303
1761238283098791700,1.536791748046875,0.0007635815418325,0.00137444678694,-0.0003054326225537
1761238283116829700,1.55482958984375,-0.0012217304902151,-0.0004581489483825,-0.0001527163112768
1761238283134868700,1.57286865234375,0.001527163083665,0.0,0.0003054326225537
1761238283152907300,1.5909072265625,0.0,-0.0012217304902151,0.0012217304902151
1761238283170945800,1.60894580078125,-0.0007635815418325,0.0,-0.0006108652451075
1761238283188984800,1.62698486328125,-0.0010690141934901,-0.0018325957935303,-0.0001527163112768
1761238283207023000,1.645023193359375,0.0003054326225537,0.0009162978967651,-0.0003054326225537
1761238283225062100,1.663062255859375,-0.0004581489483825,-0.0012217304902151,0.0001527163112768
1761238283243101200,1.68110107421875,-0.0001527163112768,0.0,-0.0010690141934901
1761238283261139200,1.69913916015625,0.0019853119738399,0.0007635815418325,0.001527163083665
1761238283279178000,1.717177978515625,-0.0012217304902151,0.0007635815418325,-0.0001527163112768
1761238283297216800,1.735216796875,-0.0007635815418325,-0.0021380283869802,0.00137444678694
1761238283315255000,1.753255126953125,0.0010690141934901,0.0007635815418325,-0.0006108652451075
1761238283333290000,1.7712900390625,0.0004581489483825,-0.0012217304902151,0.0006108652451075
1761238283351332400,1.789332275390625,-0.0001527163112768,-0.0007635815418325,0.0004581489483825
1761238283369371000,1.807370849609375,0.0006108652451075,0.0027488935738801,-0.0004581489483825
1761238283387410000,1.825409912109375,0.0006108652451075,0.0006108652451075,0.0007635815418325
1761238283405448700,1.84344873046875,0.0010690141934901,-0.0006108652451075,-0.0004581489483825
1761238283423487500,1.861487548828125,0.0,-0.0018325957935303,0.0001527163112768
1761238283441526000,1.879526123046875,0.0003054326225537,-0.0010690141934901,-0.0004581489483825
1761238283459564500,1.897564453125,0.0003054326225537,0.0004581489483825,0.0
1761238283477603300,1.915603271484375,0.00137444678694,0.0001527163112768,-0.0004581489483825
1761238283495640800,1.933640869140625,0.0003054326225537,0.00167987938039,-0.0006108652451075
1761238283513681400,1.951681396484375,0.0004581489483825,-0.0001527163112768,0.0004581489483825
1761238283531719000,1.969718994140625,0.0006108652451075,0.0003054326225537,-0.0001527163112768
1761238283549757700,1.9877578125,-0.0027488935738801,0.0024434609804302,-0.001527163083665
1761238283567802600,2.005802734375,-0.00167987938039,0.0025961773935705,0.0
1761238283585835000,2.0238349609375,-0.0001527163112768,0.0009162978967651,-0.0004581489483825
1761238283603873800,2.041873779296875,0.0001527163112768,0.0,-0.00137444678694
1761238283621912600,2.05991259765625,-0.0009162978967651,0.0003054326225537,-0.0012217304902151
1761238283639951400,2.077951416015625,-0.0003054326225537,-0.0010690141934901,-0.00167987938039
1761238283657990000,2.095989990234375,0.0003054326225537,0.0010690141934901,0.0001527163112768
1761238283676028400,2.1140283203125,0.0004581489483825,0.0012217304902151,0.0010690141934901
1761238283694067000,2.13206689453125,-0.0001527163112768,-0.0001527163112768,-0.0001527163112768
1761238283712093700,2.15009375,-0.0007635815418325,0.0,0.0006108652451075
1761238283730134800,2.168134765625,0.0010690141934901,0.0022907445672899,0.0007635815418325
1761238283748183300,2.186183349609375,0.0001527163112768,0.0009162978967651,0.0004581489483825
1761238283766221800,2.204221923828125,0.0012217304902151,-0.0001527163112768,0.0006108652451075
1761238283784260400,2.22226025390625,-0.0012217304902151,0.0007635815418325,0.0001527163112768
1761238283802299100,2.240299072265625,-0.0012217304902151,0.0004581489483825,-0.0006108652451075
1761238283820337400,2.25833740234375,-0.0004581489483825,0.00167987938039,0.0
1761238283838376200,2.276376220703125,0.00137444678694,0.0003054326225537,-0.0004581489483825
1761238283856415200,2.294415283203125,-0.0003054326225537,0.00137444678694,-0.0009162978967651
1761238283874453500,2.31245361328125,-0.0004581489483825,-0.0012217304902151,-0.0006108652451075
1761238283892492300,2.3304921875,-0.0004581489483825,0.0001527163112768,-0.0006108652451075
1761238283910530600,2.348530517578125,0.0001527163112768,-0.0006108652451075,-0.00137444678694
1761238283928569300,2.3665693359375,-0.0010690141934901,0.0010690141934901,-0.0012217304902151
1761238283946608400,2.3846083984375,-0.0009162978967651,-0.0006108652451075,0.0001527163112768
1761238283964647000,2.40264697265625,-0.0012217304902151,-0.0004581489483825,-0.0012217304902151
1761238283982685200,2.420685302734375,-0.0009162978967651,-0.0004581489483825,0.0004581489483825
1761238284000723700,2.4387236328125,-0.0009162978967651,-0.0001527163112768,0.0
1761238284018762000,2.456761962890625,0.0001527163112768,0.0004581489483825,-0.00137444678694
1761238284036801500,2.474801513671875,0.0,-0.0009162978967651,-0.0004581489483825
1761238284054839800,2.49283984375,-0.0009162978967651,0.0007635815418325,-0.0006108652451075
1761238284072878600,2.510878662109375,0.00167987938039,0.0,0.001527163083665
1761238284090917000,2.528917236328125,0.0007635815418325,0.0,-0.0006108652451075
1761238284108956200,2.5469560546875,0.0003054326225537,0.0007635815418325,0.0004581489483825
1761238284126993000,2.564992919921875,0.0003054326225537,0.0007635815418325,-0.001527163083665
1761238284145034800,2.58303466796875,-0.0004581489483825,-0.0004581489483825,-0.0006108652451075
1761238284163071700,2.60107177734375,-0.0003054326225537,0.0006108652451075,0.0
1761238284181111000,2.619111083984375,0.0012217304902151,0.0006108652451075,-0.0010690141934901
1761238284199148800,2.637148681640625,0.0003054326225537,-0.0001527163112768,-0.0004581489483825
1761238284217183500,2.65518359375,0.0007635815418325,0.0009162978967651,-0.0018325957935303
1761238284235226000,2.67322607421875,-0.0001527163112768,0.0004581489483825,0.0001527163112768
1761238284253261600,2.691261474609375,0.0006108652451075,0.0012217304902151,-0.0007635815418325
1761238284271303700,2.7093037109375,0.0007635815418325,0.0006108652451075,-0.0004581489483825
1761238284289342200,2.72734228515625,0.0009162978967651,-0.0003054326225537,0.0007635815418325
1761238284307381000,2.745381103515625,-0.0001527163112768,-0.0004581489483825,0.0030543261673301
1761238284325419000,2.7634189453125,0.0006108652451075,0.0001527163112768,0.0006108652451075
1761238284343459300,2.781459228515625,-0.0003054326225537,-0.0003054326225537,-0.0007635815418325
1761238284361497000,2.7994970703125,0.0009162978967651,0.0004581489483825,-0.0004581489483825
1761238284379540500,2.81754052734375,-0.0001527163112768,-0.0001527163112768,-0.0004581489483825
1761238284397562400,2.835562255859375,0.0001527163112768,0.0019853119738399,0.0007635815418325
1761238284415613000,2.853613037109375,0.0,-0.0001527163112768,0.0004581489483825
1761238284433651500,2.8716513671875,0.0009162978967651,0.0,0.0006108652451075
1761238284451690200,2.889690185546875,0.0001527163112768,-0.0004581489483825,0.0
1761238284469728800,2.907728759765625,0.0004581489483825,0.0004581489483825,-0.0003054326225537
1761238284487767000,2.92576708984375,0.0,-0.0001527163112768,0.0018325957935303
1761238284505805800,2.943805908203125,-0.0003054326225537,0.0006108652451075,0.0006108652451075
1761238284523844900,2.961844970703125,0.0003054326225537,0.0,-0.0009162978967651
1761238284541883400,2.97988330078125,0.0012217304902151,-0.0004581489483825,-0.0006108652451075
1761238284559922200,2.997922119140625,-0.0006108652451075,-0.0004581489483825,-0.0004581489483825
1761238284577960400,3.01596044921875,-0.00137444678694,-0.0006108652451075,0.0003054326225537
1761238284595999500,3.03399951171875,-0.0001527163112768,0.0003054326225537,-0.0003054326225537
1761238284614038000,3.0520380859375,0.0001527163112768,0.0001527163112768,0.0001527163112768
1761238284632076300,3.070076171875,-0.0012217304902151,0.0003054326225537,0.0004581489483825
1761238284650115000,3.088114990234375,-0.0006108652451075,0.0003054326225537,0.0006108652451075
1761238284668153600,3.106153564453125,0.0006108652451075,0.0009162978967651,-0.0001527163112768
1761238284686192400,3.1241923828125,0.0006108652451075,0.0009162978967651,-0.0006108652451075
1761238284704231000,3.14223095703125,-0.0003054326225537,0.0010690141934901,-0.0022907445672899
1761238284722269700,3.160269775390625,-0.0007635815418325,-0.0003054326225537,-0.0009162978967651
1761238284740308500,3.17830859375,-0.0001527163112768,-0.0010690141934901,-0.0004581489483825
1761238284758347000,3.196346923828125,0.0,0.0009162978967651,-0.0022907445672899
1761238284776385800,3.2143857421875,-0.00137444678694,0.0001527163112768,0.0006108652451075
1761238284794424000,3.232424072265625,-0.0006108652451075,-0.0001527163112768,0.0001527163112768
1761238284812463000,3.250463134765625,-0.0018325957935303,-0.001527163083665,0.0004581489483825
1761238284830505700,3.268505615234375,0.0006108652451075,-0.0006108652451075,-0.0001527163112768
1761238284848541200,3.286541259765625,0.0,-0.0012217304902151,-0.0003054326225537
1761238284866578400,3.304578369140625,-0.00137444678694,-0.0012217304902151,0.0012217304902151
1761238284884605200,3.322605224609375,0.0003054326225537,0.00167987938039,-0.0006108652451075
1761238284902644200,3.340644287109375,-0.00137444678694,-0.0004581489483825,0.0004581489483825
1761238284920684300,3.358684326171875,-0.0012217304902151,0.0009162978967651,-0.0001527163112768
1761238284938728000,3.37672802734375,-0.00167987938039,0.0010690141934901,-0.0022907445672899
1761238284956759800,3.394759765625,0.0007635815418325,0.0012217304902151,-0.0001527163112768
1761238284974814000,3.41281396484375,-0.0007635815418325,-0.0007635815418325,-0.00137444678694
1761238284992845000,3.430844970703125,0.0006108652451075,-0.0012217304902151,0.0007635815418325
1761238285010888000,3.448887939453125,-0.0001527163112768,-0.0001527163112768,0.0009162978967651
1761238285028926500,3.466926513671875,0.0003054326225537,-0.0010690141934901,0.0004581489483825
1761238285046966500,3.484966552734375,0.0009162978967651,0.0012217304902151,0.0
1761238285065006600,3.503006591796875,0.0003054326225537,-0.0003054326225537,-0.0009162978967651
1761238285083043600,3.521043701171875,-0.0007635815418325,-0.0019853119738399,0.0003054326225537
1761238285101079300,3.539079345703125,-0.0003054326225537,-0.0001527163112768,0.0012217304902151
1761238285119123200,3.557123291015625,-0.0009162978967651,-0.0003054326225537,-0.0012217304902151
1761238285137159000,3.575158935546875,-0.0006108652451075,-0.0010690141934901,0.0019853119738399
1761238285155197700,3.59319775390625,0.0,-0.0007635815418325,0.0004581489483825
1761238285173236700,3.61123681640625,0.0,0.0001527163112768,-0.0012217304902151
1761238285191275000,3.62927490234375,-0.0003054326225537,0.0,-0.0001527163112768
1761238285209313500,3.6473134765625,-0.0001527163112768,0.0012217304902151,-0.0009162978967651
1761238285227352600,3.6653525390625,0.0003054326225537,-0.0010690141934901,0.0
1761238285245385700,3.6833857421875,0.0,-0.0012217304902151,0.0001527163112768
1761238285263431700,3.701431640625,0.0001527163112768,-0.0006108652451075,0.0012217304902151
1761238285281468400,3.719468505859375,0.0001527163112768,0.0009162978967651,-0.0003054326225537
1761238285299507200,3.737507080078125,0.0007635815418325,0.0004581489483825,-0.0010690141934901
1761238285317545500,3.75554541015625,0.0,-0.0003054326225537,-0.0001527163112768
