time,seconds_elapsed,z,y,x
1761238256220773400,0.0037734375,-0.0711736679077148,0.0092734172940254,0.0107019376009702
1761238256238811600,0.021811767578125,-0.0529651641845703,0.0157486796379089,0.0241531617939472
1761238256256852500,0.0398525390625,-0.0616302490234375,0.013144627213478,0.0201296024024486
1761238256274891300,0.057891357421875,-0.0605707168579101,0.021604761481285,0.0139565346762537
1761238256292930300,0.075930419921875,-0.0596170425415039,0.0168099999427795,0.0136959692463278
1761238256310969600,0.093969482421875,-0.0589857101440429,0.0137989968061447,0.0180091671645641
1761238256329009000,0.1120087890625,-0.0559797286987304,0.0125677287578582,0.013910130597651
1761238256347048000,0.1300478515625,-0.0640583038330078,0.0140569880604743,0.0114208441227674
1761238256491364000,0.274364013671875,-0.0584268569946289,0.0018021017313003,0.0012393994256854
1761238256509401600,0.292401611328125,-0.0463695526123046,0.0015011578798294,0.0086684199050068
1761238256527441000,0.31044091796875,-0.0634698867797851,0.0015673860907554,0.00434728898108
1761238256545480000,0.32847998046875,-0.0634050369262695,-0.0015678629279136,0.0006844941526651
1761238256563507200,0.346507080078125,-0.0604486465454101,0.0029236227273941,0.005778101272881
1761238256581558800,0.364558837890625,-0.0576686859130859,-0.0065454617142677,0.0013549514114856
1761238256599597600,0.38259765625,-0.0537328720092773,-0.0033187046647071,0.0004144562408328
1761238256617636600,0.40063671875,-0.0613174438476562,-0.0063488483428955,0.0108579769730567
1761238256635676200,0.41867626953125,-0.0613832473754882,-0.0054395943880081,0.001297147013247
1761238256653715200,0.436715087890625,-0.0599918365478515,0.00064567476511,0.0032242117449641
1761238256671754500,0.45475439453125,-0.0522632598876953,-0.0018658638000488,0.001407821662724
1761238256689794000,0.4727939453125,-0.059401512145996,-0.0019474029541015,0.003474062308669
1761238256707833000,0.4908330078125,-0.0653676986694336,-0.0049494504928588,0.0041316412389278
1761238256725872400,0.508872314453125,-0.0630731582641601,0.0036066621541976,0.0069165173918008
1761238256743911400,0.526911376953125,-0.0620927810668945,-0.0004390478134155,0.0041353525593876
1761238256761951000,0.544950927734375,-0.0584983825683593,-0.0031981691718101,0.0064651211723685
1761238256779990300,0.562990234375,-0.0673999786376953,-0.0066863670945167,0.0020705619826912
1761238256798030300,0.5810302734375,-0.0603694915771484,-0.0033527761697769,0.0026789056137204
1761238256816067800,0.59906787109375,-0.0584774017333984,-0.0048170760273933,0.0056955618783831
1761238256834108000,0.61710791015625,-0.0550146102905273,-0.0036796182394027,0.0010662702843546
1761238256852147200,0.635147216796875,-0.0599775314331054,-0.0063075572252273,-0.003604469820857
1761238256870186200,0.653186279296875,-0.0571413040161132,0.0015875324606895,3.00975516438e-05
1761238256888226000,0.67122607421875,-0.0569953918457031,-0.0090882331132888,0.0017784060910344
1761238256906264800,0.689264892578125,-0.064310073852539,-0.0014740154147148,-0.0013394318521022
1761238256924304400,0.707304443359375,-0.0527000427246093,-0.0090669021010398,0.0049118809401988
1761238256942342000,0.725341796875,-0.0584735870361328,-0.0130085349082946,0.0067301681265234
1761238256960382200,0.74338232421875,-0.058384895324707,-0.009124532341957,0.0097886137664318
1761238256978424000,0.761424072265625,-0.0641021728515625,-0.0054299011826515,0.0041527738794684
1761238256996460000,0.7794599609375,-0.0616884231567382,-0.0074063688516616,0.0035002920776605
1761238257014501600,0.797501708984375,-0.0623550415039062,-0.0068010985851287,0.0062960060313344
1761238257032539400,0.815539306640625,-0.0570087432861328,-0.0073913633823394,0.0031223725527524
1761238257050579000,0.833578857421875,-0.0539779663085937,-0.0004902780055999,0.0061512608081102
1761238257068605400,0.85160546875,-0.055668830871582,0.0020608380436897,0.0083044311031699
1761238257086658300,0.869658203125,-0.0652227401733398,-0.0009115040302276,0.0097707882523536
1761238257104696600,0.887696533203125,-0.0608119964599609,-0.0042789727449417,0.0033119702711701
1761238257122736000,0.905736083984375,-0.0595884323120117,0.0017141550779342,0.0012556007131934
1761238257140775200,0.923775146484375,-0.061659812927246,-0.0051315054297447,0.0090930759906768
1761238257158814200,0.941814208984375,-0.0634288787841796,-0.0035739466547966,-0.0003746878355741
1761238257176854000,0.95985400390625,-0.0560836791992187,-0.0013327077031135,0.001633508130908
1761238257194893000,0.97789306640625,-0.0607032775878906,-0.0037275850772857,0.00732840038836
1761238257212932400,0.995932373046875,-0.0579290390014648,-0.0088271647691726,0.0028033489361405
1761238257230960400,1.01396044921875,-0.0652303695678711,-0.0029608532786369,0.006396253593266
1761238257249011000,1.032010986328125,-0.062870979309082,-0.0005435273051261,0.0053690234199166
1761238257267050000,1.050050048828125,-0.0653486251831054,-0.0043659210205078,0.001641503535211
1761238257285089300,1.06808935546875,-0.0684185028076171,-0.0045912340283393,-9.2722475528e-06
1761238257303124500,1.08612451171875,-0.055556297302246,-0.0067432522773742,0.0007066344842314
1761238257321167400,1.10416748046875,-0.0652551651000976,0.0016367211937904,0.0045302379876375
1761238257339206700,1.12220654296875,-0.0678739547729492,0.0002526938915252,-0.000871080905199
1761238257357246000,1.140245849609375,-0.0640821456909179,-8.98465514183e-05,0.0035898042842745
1761238257375285500,1.158285400390625,-0.0577869415283203,-0.0130442678928375,-0.0004638405516743
1761238257393318700,1.176318603515625,-0.0562019348144531,-0.0087729170918464,0.0074981488287448
1761238257411365400,1.194365478515625,-0.0650167465209961,-0.0007638037204742,0.0022530332207679
1761238257429403100,1.212403076171875,-0.0599946975708007,-0.009384162724018,0.0002727042883634
1761238257447442200,1.230442138671875,-0.0609674453735351,-0.0059359222650527,-0.0043443371541798
1761238257465481700,1.248481689453125,-0.0573558807373046,-0.0082143917679786,-0.0007728626951575
1761238257483520800,1.266520751953125,-0.0558195114135742,-0.0045287534594535,0.0051530692726373
1761238257501559800,1.284559814453125,-0.0520792007446289,-0.0049208179116249,0.0020898571237921
1761238257519599000,1.30259912109375,-0.0660314559936523,-0.0058228522539138,0.0027696751058101
1761238257537637600,1.3206376953125,-0.060927391052246,0.000681884586811,0.0091835428029298
1761238257555678000,1.338677978515625,-0.0548629760742187,-0.0095036551356315,0.0040562879294157
1761238257573717200,1.35671728515625,-0.0583963394165039,-0.000121958553791,-0.0002419175580143
1761238257591756300,1.37475634765625,-0.0632734298706054,-0.0043141394853591,0.0079669905826449
1761238257609795000,1.392795166015625,-0.0591640472412109,-0.0004212632775306,0.0050798449665308
1761238257627833300,1.410833251953125,-0.0647516250610351,-0.0045456066727638,0.0101855862885713
1761238257645875500,1.42887548828125,-0.0549440383911132,-0.0074268877506256,0.0028305919840931
1761238257663914000,1.4469140625,-0.0617170333862304,-0.001474991440773,0.0067948065698146
1761238257681951500,1.464951416015625,-0.0573663711547851,-0.0013866052031517,0.0047727897763252
1761238257699991300,1.4829912109375,-0.0561866760253906,-0.0025985240936279,0.0045041963458061
1761238257718030600,1.501030517578125,-0.0645370483398437,-0.0086302980780601,0.0069575663655996
1761238257736066800,1.51906689453125,-0.0653257369995117,-0.0023261457681655,0.0064412662759423
1761238257754109400,1.537109375,-0.061263084411621,-0.0070190355181694,0.0099915955215692
1761238257772148700,1.555148681640625,-0.0628423690795898,-0.0098828822374343,0.0038022827357053
1761238257790188000,1.57318798828125,-0.0610437393188476,-0.008334457874298,-0.0039837644435465
1761238257808226800,1.591226806640625,-0.0543937683105468,-0.0020975396037101,-0.004776201210916
1761238257826266000,1.60926611328125,-0.0626850128173828,-0.0017910450696945,0.0035599209368228
1761238257844305700,1.6273056640625,-0.0546388626098632,0.0048434734344482,0.008600765839219
1761238257862344700,1.6453447265625,-0.0612049102783203,-0.0059756785631179,0.009563572704792
1761238257880384300,1.66338427734375,-0.0635795593261718,-0.0121050179004669,0.0096962321549654
1761238257898422800,1.6814228515625,-0.0610122680664062,-0.0008146166801452,0.0087783969938755
1761238257916462600,1.699462646484375,-0.0615816116333007,-0.0071528404951095,0.0058437958359718
1761238257934501600,1.717501708984375,-0.0579099655151367,-0.0056368336081504,0.0040746759623289
1761238257952540700,1.735540771484375,-0.0636491775512695,-0.0039165914058685,0.0030976543202996
1761238257970579700,1.753579833984375,-0.0564661026000976,-0.0038108006119728,0.0062221139669418
1761238257988618800,1.77161865234375,-0.0517339706420898,-0.0066948533058166,0.0035444358363747
1761238258006658600,1.789658447265625,-0.0555295944213867,-0.0070795193314552,0.008079900406301
1761238258024697300,1.807697265625,-0.0620088577270507,-0.004367396235466,0.0123434392735362
1761238258042737000,1.82573681640625,-0.0593299865722656,-0.0080149844288825,0.001044288277626
1761238258060776400,1.8437763671875,-0.058272361755371,-0.006956972181797,0.0020448304712772
1761238258078815000,1.86181494140625,-0.055272102355957,-0.0125845074653625,0.0030727079138159
1761238258096854800,1.879854736328125,-0.0622215270996093,-0.0080266594886779,0.0021636532619595
1761238258114894000,1.89789404296875,-0.0625734329223632,0.002016395330429,0.000706105493009
1761238258132933600,1.91593359375,-0.0611534118652343,-0.0100650638341903,0.003228073939681
1761238258150971600,1.9339716796875,-0.062143325805664,0.0010568723082542,0.0131234833970665
1761238258169011200,1.95201123046875,-0.0614271163940429,-0.0098821371793746,0.0046797255054116
1761238258187050500,1.970050537109375,-0.0638675689697265,-0.0005277469754219,-0.002044784836471
1761238258205089800,1.98808984375,-0.0506534576416015,-0.0013417676091194,0.0014275331050157
1761238258223126000,2.0061259765625,-0.0590934753417968,-0.0068765953183174,0.0039333133026957
1761238258241168100,2.024168212890625,-0.0566511154174804,-0.0040259435772895,0.002828599885106
1761238258259207400,2.04220751953125,-0.0553197860717773,0.0004204213619232,0.0010658223181962
1761238258277246700,2.060246826171875,-0.0614376068115234,-0.0056910440325737,-0.0005074776709079
1761238258295284700,2.07828466796875,-0.0610857009887695,-0.0064919888973236,0.0022247908636927
1761238258313325000,2.096324951171875,-0.0610609054565429,-0.0060959607362747,0.0078411642462015
1761238258331366000,2.114365966796875,-0.0558700561523437,-0.0048560574650764,0.0071166530251502
1761238258349403400,2.1324033203125,-0.0603914260864257,-0.0078979283571243,0.0003840485587716
1761238258367442400,2.1504423828125,-0.053537368774414,-0.0061302855610847,0.0002655955031514
1761238258385481700,2.168481689453125,-0.0688276290893554,0.0009050443768501,0.0056162504479289
1761238258403502800,2.1865029296875,-0.060072898864746,-0.008330687880516,0.0121383555233478
1761238258421560600,2.204560546875,-0.0617971420288085,-0.008695051074028,0.0061434917151927
1761238258439599600,2.222599609375,-0.0566234588623046,-0.0051458403468132,0.0002012867480516
1761238258457638400,2.240638427734375,-0.060455322265625,-0.0025526583194732,0.0071341972798109
1761238258475678500,2.258678466796875,-0.0554962158203125,-0.0036458149552345,0.0035848459228873
1761238258493717200,2.27671728515625,-0.0641031265258789,-0.0008387491106987,0.0024599581956863
1761238258511756800,2.2947568359375,-0.0603132247924804,0.0002054199576377,0.0131246745586395
1761238258529795800,2.3127958984375,-0.0630664825439453,-0.0015985518693923,0.0067875459790229
1761238258547835100,2.330835205078125,-0.0618848800659179,-0.0056198835372924,0.0050003016367554
1761238258565874000,2.3488740234375,-0.0608558654785156,-0.0042983740568161,0.0036694081500172
1761238258583913200,2.366913330078125,-0.0604715347290039,0.001451127231121,0.0096086775884032
1761238258601952300,2.3849521484375,-0.0579032897949218,-0.003880351781845,0.0003465069457888
1761238258619991800,2.40299169921875,-0.0551013946533203,-0.0031195133924484,0.0060463808476924
1761238258638030600,2.421030517578125,-0.0618810653686523,-0.0082244500517845,0.0045823501423001
1761238258656070100,2.439070068359375,-0.0620355606079101,-0.0085974261164665,-0.0047869128175079
1761238258674109000,2.45710888671875,-0.0546693801879882,-0.0057010874152183,0.0041101090610027
1761238258692148700,2.475148681640625,-0.0599288940429687,-0.0049883276224136,0.0014304900541901
1761238258710188000,2.49318798828125,-0.0604381561279296,-9.67681407928e-05,-0.0069909836165606
1761238258728227300,2.511227294921875,-0.0591850280761718,-0.0068991631269454,0.0063587352633476
1761238258746266000,2.52926611328125,-0.0669698715209961,-0.0031401738524436,-0.0012028198689222
1761238258764305700,2.5473056640625,-0.0567712783813476,-0.0089670717716217,-0.0004819808527827
1761238258782344700,2.5653447265625,-0.0600767135620117,-0.0070160925388336,0.0014691464602947
1761238258800382000,2.5833818359375,-0.0661649703979492,-0.0036127716302871,0.0026288628578186
1761238258818424300,2.60142431640625,-0.0582132339477539,-0.0043881013989448,-0.0012426991015672
1761238258836462000,2.619462158203125,-0.0541791915893554,-0.0038802400231361,0.0042223092168569
1761238258854501000,2.637501220703125,-0.0638074874877929,-0.003992274403572,-9.33231785893e-05
1761238258872529200,2.655529052734375,-0.0554885864257812,-0.0045957639813423,0.0074295224621891
1761238258890580000,2.673580078125,-0.0559492111206054,-0.0054887607693672,-0.0025747688487172
1761238258908618800,2.69161865234375,-0.0563821792602539,-0.003211110830307,0.002171404659748
1761238258926658800,2.709658935546875,-0.0600099563598632,-0.0085050016641616,0.005644591525197
1761238258944696300,2.7276962890625,-0.0594968795776367,-0.000499203801155,-0.0016350531950592
1761238258962736600,2.745736572265625,-0.0599441528320312,-0.0016501769423484,0.0002777902409434
1761238258980777500,2.763777587890625,-0.0580596923828125,-0.0078484192490577,0.0036976570263504
1761238258998815000,2.78181494140625,-0.0586166381835937,-0.0004921406507492,0.0073147183284163
1761238259016854000,2.79985400390625,-0.0669431686401367,-0.0010123401880264,0.0032413937151432
1761238259034891500,2.8178916015625,-0.0598154067993164,-0.0023767277598381,0.0027914009988307
1761238259052932900,2.835932861328125,-0.0591793060302734,-0.0069370418787002,0.0020791664719581
1761238259070963500,2.85396337890625,-0.0551490783691406,-0.004846803843975,0.0031259926036
1761238259089011000,2.872010986328125,-0.0567178726196289,-0.0045109987258911,0.0034615760669112
1761238259107050200,2.89005029296875,-0.0526418685913085,-0.0064232051372528,0.0035625332966446
1761238259125089500,2.908089599609375,-0.0627279281616211,-0.0044839903712272,0.000959925353527
1761238259143124700,2.926124755859375,-0.0643463134765625,0.0023305863142013,-0.0008212430402636
1761238259161168000,2.94416796875,-0.0633192062377929,0.0020315647125244,-0.0010239165276288
1761238259179206400,2.962206298828125,-0.0522737503051757,-0.0085138157010078,0.0057777445763349
1761238259197246700,2.980246826171875,-0.0618667602539062,-0.0023900046944618,-0.0019770646467804
1761238259215285500,2.998285400390625,-0.0605220794677734,-0.0084074586629867,-0.0053715608082711
1761238259233323000,3.016322998046875,-0.0557994842529296,-0.0011684820055961,-0.0058051031082868
1761238259251365000,3.034365234375,-0.0557575225830078,0.0007768124341964,0.0028198426589369
1761238259269403100,3.052403076171875,-0.056950569152832,-0.0031002908945083,0.0009320862591266
1761238259287442000,3.07044189453125,-0.054173469543457,-0.0089695304632186,0.0032487651333212
1761238259305481200,3.088481201171875,-0.0610723495483398,0.0004689022898674,-0.0058287158608436
1761238259323520300,3.106520263671875,-0.0602579116821289,-0.005454383790493,0.005611521191895
1761238259341559600,3.1245595703125,-0.0612773895263671,-0.0047029107809066,-0.003217807970941
1761238259359598600,3.1425986328125,-0.0553550720214843,-0.0035819858312606,0.001703767105937
1761238259377638000,3.160637939453125,-0.0586280822753906,-0.0067041516304016,-0.0029271310195326
1761238259395677400,3.178677490234375,-0.0600776672363281,-0.0083750337362289,1.12606212496e-05
1761238259413716500,3.196716552734375,-0.0604333877563476,-0.003258891403675,-0.0015275590121746
1761238259431755800,3.214755859375,-0.0531606674194335,-0.0061266645789146,0.0080193607136607
1761238259449794800,3.232794921875,-0.0579872131347656,-0.0018295571208,0.0016568088904023
1761238259467834400,3.25083447265625,-0.0630016326904296,-0.004006914794445,-0.0019933301955461
1761238259485873000,3.268872802734375,-0.0583763122558593,0.0064118131995201,0.0061147147789597
1761238259503912200,3.286912109375,-0.0592241287231445,-0.0059810951352119,0.0031890347599983
1761238259521951200,3.304951171875,-0.056889533996582,-0.0040017366409301,0.0003426522016525
1761238259539990500,3.322990478515625,-0.0572919845581054,-0.0060058981180191,-0.0004335828125476
1761238259558029600,3.341029541015625,-0.0611944198608398,-0.0067813992500305,-0.0050023840740323
1761238259576069000,3.359069091796875,-0.063425064086914,-0.0060484707355499,0.0010413844138383
1761238259594107000,3.37710693359375,-0.054819107055664,-0.0047409757971763,-0.0012444807216525
1761238259612148700,3.395148681640625,-0.0579919815063476,-0.008434385061264,0.0004959804937243
1761238259630176000,3.413176025390625,-0.0684795379638671,-0.0056398957967758,0.0037041278555989
1761238259648226300,3.431226318359375,-0.059478759765625,-0.0034758895635604,-0.0014724200591444
1761238259666265000,3.44926513671875,-0.0576162338256835,0.0033943057060241,0.0034409929066896
1761238259684304000,3.467303955078125,-0.0594472885131835,0.0020783469080924,0.0033974014222621
1761238259702344200,3.48534423828125,-0.05963134765625,-0.0075988695025444,-0.0029975986108183
1761238259720382200,3.50338232421875,-0.0589685440063476,-0.0025842040777206,0.0077376244589686
1761238259738413300,3.521413330078125,-0.0572566986083984,0.0032494291663169,0.004648077301681
1761238259756460800,3.539460693359375,-0.0537290573120117,-0.001406230032444,0.0022322293370962
1761238259774500000,3.5575,-0.0577306747436523,-0.0028151497244834,0.0055493218824267
1761238259792539100,3.5755390625,-0.0621833801269531,-0.00619388371706,0.0081393597647547
1761238259810578000,3.593577880859375,-0.0616579055786132,-0.0036985427141189,-0.0027141189202666
1761238259828617200,3.6116171875,-0.0556392669677734,-0.0012412667274475,-0.0018082438036799
1761238259846657300,3.6296572265625,-0.0578479766845703,0.0006450116634368,0.0097257243469357
1761238259864695800,3.64769580078125,-0.0557537078857421,-0.0049653053283691,3.92952933907e-05
1761238259882735400,3.6657353515625,-0.0577220916748046,-0.0014696568250656,0.0058927861973643
1761238259900774100,3.683774169921875,-0.0601577758789062,-0.0086930096149444,0.0015662526711821
1761238259918813200,3.701813232421875,-0.057403564453125,-0.0059134364128112,0.0014709010720252
1761238259936852500,3.7198525390625,-0.0597124099731445,-0.0053924694657325,-0.0016673663631081
1761238259954891800,3.737891845703125,-0.060276985168457,-0.0045399740338325,-0.0021963315084576
1761238259972930600,3.7559306640625,-0.0518426895141601,-0.0005496367812156,-0.0003109248355031
1761238259990969900,3.773969970703125,-0.0625753402709961,-0.0071281120181083,0.0022538602352142
1761238260009008400,3.79200830078125,-0.0652914047241211,-0.0050337389111518,-0.0027337474748492
1761238260027049200,3.81004931640625,-0.0596466064453125,0.0024120584130287,-0.0011699283495545
1761238260045087500,3.82808740234375,-0.0534629821777343,-0.0007005706429481,6.77229836583e-05
1761238260063123000,3.846123046875,-0.0568523406982421,0.0003252550959587,0.0020271735265851
1761238260081165600,3.86416552734375,-0.0635328292846679,-0.0039028227329254,0.0038708653301
1761238260099205000,3.882205078125,-0.052983283996582,0.0010956153273582,-0.0011644046753644
1761238260117244200,3.900244140625,-0.0483055114746093,-0.0053178966045379,0.0050354050472378
1761238260135283500,3.918283447265625,-0.053293228149414,-0.0028553754091262,0.0077219316735863
1761238260153320700,3.93632080078125,-0.0549583435058593,-0.0023731812834739,0.0039213271811604
1761238260171363000,3.954363037109375,-0.0574445724487304,-0.0001566708087921,0.0080014644190669
1761238260189400600,3.972400634765625,-0.0565042495727539,-0.0006231144070625,0.0072580119594931
1761238260207440000,3.99043994140625,-0.0529813766479492,-0.0075075924396514,-0.0003453185781836
1761238260225479000,4.00847900390625,-0.0526294708251953,-0.003114566206932,0.0007456820458173
1761238260243518500,4.0265185546875,-0.0583124160766601,-0.0013862028717994,0.0008480558171868
1761238260261557500,4.0445576171875,-0.0562877655029296,-0.0025811418890953,-0.0016927095130085
1761238260279596300,4.06259619140625,-0.063751220703125,-0.0013907849788665,-0.0011811535805463
1761238260297634600,4.080634521484375,-0.0565528869628906,-0.0026875883340835,-0.0034570284187793
1761238260315676200,4.09867626953125,-0.0569438934326171,-0.0055886805057525,-0.0009155478328466
1761238260333714200,4.116714111328125,-0.057687759399414,-0.0013113394379615,-0.003454677760601
1761238260351753200,4.134753173828125,-0.0529813766479492,-0.0011450350284576,0.0020312201231718
1761238260369792300,4.152792236328125,-0.0537290573120117,-0.005343772470951,-0.0027096131816506
1761238260387831600,4.17083154296875,-0.0648431777954101,-0.0037055313587188,-0.0032498184591531
1761238260405853400,4.188853515625,-0.056070327758789,-0.0038585811853408,-0.0004131710156798
1761238260423910000,4.206909912109375,-0.0608377456665039,-0.0045500770211219,0.0013159876689314
1761238260441948700,4.22494873046875,-0.0618009567260742,-0.0060287192463874,0.001059228554368
1761238260459988500,4.242988525390625,-0.0569992065429687,-0.003434233367443,0.0005763629451394
1761238260478027000,4.261027099609375,-0.0582036972045898,0.0022754073143005,0.0084890434518456
1761238260496066300,4.27906640625,-0.0510225296020507,-0.0047583431005477,0.0051889913156628
1761238260514105600,4.297105712890625,-0.0583715438842773,0.0003162771463394,0.005511132068932
1761238260532145000,4.315144775390625,-0.050084114074707,-0.0016583278775215,0.0022428724914789
1761238260550184000,4.333183837890625,-0.0563859939575195,-0.0015197321772575,0.0046055698767304
1761238260568222700,4.35122265625,-0.0589323043823242,-0.0038035586476325,0.002525114454329
1761238260586262300,4.36926220703125,-0.0598955154418945,-0.0001603290438652,-0.0039398977532982
1761238260604301600,4.387301513671875,-0.059737205505371,-0.0083019286394119,0.0022890632972121
1761238260622340600,4.405340576171875,-0.0529346466064453,-0.0134011134505271,-0.0023300964385271
1761238260640379600,4.423379638671875,-0.056654930114746,0.0047758445143699,-0.0022204089909791
1761238260658418700,4.441418701171875,-0.052377700805664,-0.0030948296189308,-0.0008084001019597
1761238260676457700,4.459457763671875,-0.0597209930419921,-0.0054090991616249,0.0016830237582325
1761238260694497300,4.477497314453125,-0.060831069946289,-0.0026759654283523,-2.7846544981e-05
1761238260712536300,4.495536376953125,-0.0539941787719726,-0.0021063685417175,-0.0009750453755259
1761238260730575400,4.513575439453125,-0.0500431060791015,-0.0003633946180343,0.0084210392087697
1761238260748614400,4.531614501953125,-0.0576391220092773,-0.0019430816173553,0.0022751670330762
1761238260766654200,4.549654296875,-0.0598249435424804,0.0011612251400947,0.0080431327223777
1761238260784692700,4.567692626953125,-0.0552959442138671,0.0015254616737365,0.0045987553894519
1761238260802732000,4.58573193359375,-0.0619077682495117,-0.0071985870599746,-0.0005566487088799
1761238260820771000,4.60377099609375,-0.0528898239135742,-0.005668357014656,0.0050671733915805
1761238260838796000,4.621796142578125,-0.0637769699096679,-0.0072277709841728,0.0015596281737089
1761238260874886700,4.65788671875,-0.0544986724853515,-0.0004850775003433,-0.0022899527102708
1761238260892926700,4.6759267578125,-0.0574235916137695,-0.0060103610157966,-0.002217249944806
1761238260910965000,4.693965087890625,-0.0549430847167968,-0.001164823770523,-0.0038817785680294
1761238260929005800,4.712005859375,-0.0586280822753906,-0.0028842389583587,0.0016474155709147
1761238260947040800,4.730040771484375,-0.0557718276977539,-0.0079839751124382,-0.0016151256859302
1761238260965086200,4.748086181640625,-0.0558280944824218,-0.008826307952404,0.001998221501708
1761238260983122200,4.7661220703125,-0.0540485382080078,-0.007249429821968,-0.0033086258918046
1761238261001161500,4.784161376953125,-0.0562152862548828,-0.0099046528339385,0.0016215788200497
1761238261019200300,4.8022001953125,-0.0599546432495117,-0.0144554078578948,0.0023224903270602
1761238261037239600,4.820239501953125,-0.0593843460083007,-0.0021854564547538,0.0023134304210543
1761238261055278800,4.83827880859375,-0.0592975616455078,-0.0067243352532386,0.0081001762300729
1761238261073318400,4.856318359375,-0.0552244186401367,-0.005525104701519,0.0071760984137654
1761238261091356700,4.874356689453125,-0.058669090270996,-0.0071366429328918,0.0070177223533391
1761238261109396200,4.892396240234375,-0.0528545379638671,-0.0066678673028945,6.808899343e-06
1761238261127435000,4.91043505859375,-0.0513277053833007,-0.0041089281439781,-0.0050105508416891
1761238261145471500,4.928471435546875,-0.0558061599731445,-0.0038569942116737,-0.0016259178519248
1761238261163513000,4.94651318359375,-0.0576200485229492,-0.004013106226921,-0.0013549737632274
1761238261181552600,4.964552734375,-0.0608205795288085,-0.0090810656547546,-0.0041477531194686
1761238261199592000,4.982592041015625,-0.0525312423706054,-0.0098504424095153,-0.0018042623996734
1761238261217631200,5.00063134765625,-0.0490026473999023,-0.0035188719630241,0.0037542805075645
1761238261235665200,5.0186650390625,-0.0525312423706054,0.0063459053635597,0.0022673178464174
1761238261253709600,5.03670947265625,-0.0564775466918945,-0.0039284899830818,0.0001044990494847
1761238261271745800,5.054745849609375,-0.0507402420043945,-0.0027649924159049,0.0015263417735695
1761238261289790500,5.07279052734375,-0.0521469116210937,-0.0020305290818214,-0.0011294372379779
1761238261307826400,5.090826416015625,-0.0582094192504882,-0.0042581111192703,0.0014803344383835
1761238261325865700,5.10886572265625,-0.0510015487670898,-0.0052284225821495,0.0128207504749298
1761238261343904800,5.12690478515625,-0.0499114990234375,-0.00298972427845,0.0093242339789867
1761238261361944000,5.144944091796875,-0.0549449920654296,-0.0003140792250633,0.0059077693149447
1761238261379979000,5.16297900390625,-0.0509967803955078,-0.0051615387201309,0.0022362805902957
1761238261398026200,5.181026123046875,-0.048771858215332,-0.0019316524267196,-0.0011650137603282
1761238261416061400,5.1990615234375,-0.0507097244262695,-0.0002889856696128,0.0057647693902254
1761238261434099500,5.217099365234375,-0.0539264678955078,-0.0030133575201034,0.0038980711251497
1761238261452141000,5.23514111328125,-0.0566883087158203,-0.0027642548084259,0.0056770527735352
1761238261470178800,5.2531787109375,-0.0618152618408203,-0.0047221407294273,0.0015924340113997
1761238261488217900,5.2712177734375,-0.0533304214477539,-0.0049781948328018,0.0027931425720453
1761238261506246000,5.289245849609375,-0.0565977096557617,-0.0014414563775062,0.0022253403440117
1761238261524296000,5.3072958984375,-0.0525436401367187,-0.0013629421591758,0.0021939203143119
1761238261542335200,5.325335205078125,-0.054203987121582,-0.0001677572727203,0.006444776430726
1761238261560373000,5.343373046875,-0.0585174560546875,-0.0052927583456039,0.0019502891227602
1761238261578414000,5.3614140625,-0.0562458038330078,-0.0060427039861679,0.0022694785147905
1761238261596452400,5.379452392578125,-0.0518426895141601,-0.0047958269715309,-0.0026998845860362
1761238261614491600,5.39749169921875,-0.0581617355346679,-0.0016599223017692,0.0024225022643804
1761238261632531000,5.415531005859375,-0.0532693862915039,-0.0029756054282188,0.0013425284996628
1761238261650570500,5.433570556640625,-0.0572404861450195,-0.0012784898281097,0.002316958270967
1761238261668609300,5.451609375,-0.0578432083129882,-0.009577676653862,-0.0029426971450448
1761238261686648600,5.469648681640625,-0.0520849227905273,-0.0021465420722961,-0.0035503720864653
1761238261704675800,5.48767578125,-0.0541391372680664,-0.0015530660748481,0.0043362975120544
1761238261722726400,5.505726318359375,-0.0503883361816406,-0.0055855214595794,0.0016341917216777
1761238261740765700,5.523765625,-0.0597314834594726,-0.0083949565887451,0.0011956710368394
1761238261758804500,5.541804443359375,-0.0552949905395507,-0.0020572915673255,0.001177230849862
1761238261776843800,5.55984375,-0.0564126968383789,-0.0026315972208976,0.0012067789211869
1761238261794883000,5.577883056640625,-0.0606412887573242,-0.0010172501206398,-0.0006479285657405
1761238261812921900,5.595921875,-0.0664815902709961,-0.0025472790002822,-0.0001192586496472
1761238261830960600,5.613960693359375,-0.0603790283203125,9.02861356735e-05,0.0040892334654927
1761238261849001500,5.63200146484375,-0.0542545318603515,-0.0066919699311256,-0.0002812929451465
1761238261867039700,5.650039794921875,-0.0533275604248046,-0.00183567404747,0.0064004780724644
1761238261885078500,5.66807861328125,-0.0531873703002929,-0.0028828606009483,0.0027888547629117
1761238261903117600,5.68611767578125,-0.0531673431396484,-0.0046580657362937,-5.04199415445e-05
1761238261921156600,5.704156494140625,-0.0543022155761718,-0.005430944263935,0.0021600583568215
1761238261939193600,5.722193603515625,-0.0515508651733398,0.0025691390037536,0.0042066629976034
1761238261957237500,5.740237548828125,-0.0540580749511718,0.0009087845683097,-0.0013385070487856
1761238261975274000,5.75827392578125,-0.0584993362426757,0.006486140191555,0.0036527002230286
1761238261993313000,5.77631298828125,-0.0451993942260742,-0.0038161650300025,0.0026606237515807
1761238262011352600,5.7943525390625,-0.0530967712402343,-0.0053498223423957,-0.0015120627358555
1761238262029391400,5.812391357421875,-0.0554285049438476,-0.0057349875569343,0.0057325707748532
1761238262047430700,5.8304306640625,-0.0517196655273437,-0.0034352391958236,0.0020255418494343
1761238262065466400,5.84846630859375,-0.0518083572387695,-0.0018475949764251,0.0044929292052984
1761238262083509000,5.866509033203125,-0.0471115112304687,-0.0039457976818084,0.0019127009436488
1761238262101545200,5.884545166015625,-0.0522489547729492,-0.0024110674858093,0.0015646563842892
1761238262119589600,5.902589599609375,-0.0541639328002929,-0.0028317049145698,-0.0014271195977926
1761238262137626400,5.92062646484375,-0.057377815246582,-0.0058632567524909,0.0051928237080574
1761238262155665200,5.9386650390625,-0.0549392700195312,0.0011552348732948,-0.0036796890199184
1761238262173702400,5.956702392578125,-0.0539197921752929,-0.003653235733509,-0.0015197163447737
1761238262191743500,5.974743408203125,-0.0555524826049804,-0.0073378160595893,0.003562819212675
1761238262209780500,5.992780517578125,-0.0546607971191406,-0.0062530115246772,0.0008357819169759
1761238262227822000,6.010822021484375,-0.0574522018432617,-0.0047036036849021,0.0005804961547255
1761238262245860900,6.02886083984375,-0.0508890151977539,-0.0044947043061256,-0.00132408272475
1761238262263899600,6.046899658203125,-0.0510339736938476,-0.0032125115394592,0.0001695221289992
1761238262281938700,6.064938720703125,-0.0569047927856445,-0.007030040025711,0.0004456378519535
1761238262299975400,6.082975341796875,-0.0577945709228515,-0.0016044974327087,0.0016088802367448
1761238262318019800,6.101019775390625,-0.0561418533325195,-0.0037250891327857,-0.0012976136058568
1761238262336056800,6.119056884765625,-0.0588140487670898,-0.0030116066336631,-0.0018717497587203
1761238262354095400,6.137095458984375,-0.0562963485717773,-0.0032075941562652,0.0028643868863582
1761238262372125200,6.155125244140625,-0.0495796203613281,-0.0008775442838668,0.0075002815574407
1761238262390173200,6.173173095703125,-0.0548992156982421,-0.0046478286385536,0.0053266594186425
1761238262408212700,6.191212646484375,-0.0574903488159179,-0.0070383325219154,0.0034028720110654
1761238262426252000,6.209251953125,-0.0513839721679687,-0.0064059719443321,-0.0039626313373446
1761238262444291000,6.227291015625,-0.0540332794189453,-0.0056270062923431,0.004771739244461
1761238262462329600,6.24532958984375,-0.0596332550048828,-0.0025919675827026,-0.0009372672066092
1761238262480373200,6.263373291015625,-0.0523586273193359,-0.0055966898798942,0.0010867565870285
1761238262498408200,6.281408203125,-0.0559701919555664,-0.0029323697090148,0.0041190488263964
1761238262516447700,6.29944775390625,-0.058791160583496,-0.0077016279101371,0.0057400064542889
1761238262534486300,6.317486328125,-0.0533695220947265,0.0025995224714279,0.0059801964089274
1761238262552525600,6.335525634765625,-0.0502729415893554,0.0011158064007759,0.0037879357114434
1761238262570564600,6.353564697265625,-0.0597143173217773,0.0019246563315391,0.0046369871124625
1761238262588604200,6.371604248046875,-0.048309326171875,-0.0024357587099075,0.0041062207892537
1761238262606640600,6.389640625,-0.0524311065673828,-0.0026196613907814,-0.0008893590420484
1761238262624672000,6.407672119140625,-0.0553312301635742,0.0015094131231307,-0.0010399939492344
1761238262642720800,6.425720703125,-0.0564184188842773,-0.0037853345274925,0.0036295019090175
1761238262660759800,6.443759765625,-0.0500869750976562,-0.0026882290840148,0.001416147686541
1761238262678791400,6.46179150390625,-0.0527019500732421,0.0004288926720619,0.0056845229119062
1761238262696838400,6.47983837890625,-0.0513105392456054,-0.003063753247261,-0.002414908260107
1761238262714877700,6.497877685546875,-0.054025650024414,-0.0005851462483406,0.0063616400584578
1761238262732917000,6.5159169921875,-0.0515127182006835,-0.0042885243892669,-0.0010963594540953
1761238262750954800,6.533954833984375,-0.0488567352294921,0.0003392919898033,0.0006494559347629
1761238262768993800,6.551993896484375,-0.0525150299072265,-0.0019973590970039,0.0039435094222426
1761238262787035400,6.570035400390625,-0.050145149230957,0.0022543743252754,-0.0012588165700435
1761238262805073000,6.588072998046875,-0.0486478805541992,-0.0029902830719947,0.0006476007401943
1761238262823096800,6.606096923828125,-0.046635627746582,-0.0019408464431762,0.0020590694621205
1761238262841139200,6.62413916015625,-0.04925537109375,0.0005820766091346,0.0011526411399245
1761238262859193000,6.642193115234375,-0.0507888793945312,-0.0020353123545646,0.0051167886704206
1761238262877230000,6.66022998046875,-0.056868553161621,-0.0025895610451698,0.0046224575489759
1761238262895268000,6.67826806640625,-0.0508031845092773,-0.0048694685101509,0.0015164110809564
1761238262913307400,6.696307373046875,-0.0498847961425781,2.02283263206e-05,0.0010636746883392
1761238262931346200,6.71434619140625,-0.0549449920654296,-0.0005017444491386,0.0028362609446048
1761238262949385700,6.7323857421875,-0.0505104064941406,-0.003057338297367,0.0032035643234848
1761238262967424500,6.750424560546875,-0.0487031936645507,-0.0003055930137634,0.0065858084708452
1761238262985460700,6.768460693359375,-0.0576896667480468,-0.0046619251370429,0.004781830124557
1761238263003502300,6.78650244140625,-0.0579128265380859,3.77520918846e-05,-0.0015323925763368
1761238263021542100,6.804542236328125,-0.0561599731445312,-0.0004748478531837,-0.0017470885068178
1761238263039585800,6.822585693359375,-0.0506954193115234,-0.0063344836235046,0.0004901979118585
1761238263057620000,6.840619873046875,-0.0498685836791992,-0.0001998245716094,0.0026069851592183
1761238263075659300,6.8586591796875,-0.0538063049316406,0.0048172026872634,0.0003255419433116
1761238263093698300,6.8766982421875,-0.0521268844604492,-0.0043943300843238,0.0041537778452038
1761238263111736800,6.89473681640625,-0.0500860214233398,0.0001658424735069,0.0028339559212327
1761238263129776600,6.912776611328125,-0.0497779846191406,0.0026121214032173,0.0015189768746495
1761238263147815400,6.9308154296875,-0.0508680343627929,-0.004651091992855,0.0082452576607465
1761238263165854700,6.948854736328125,-0.0550947189331054,0.0001417249441146,0.0063391411677002
1761238263183893500,6.9668935546875,-0.0516748428344726,-0.0001250430941581,0.00080884154886
1761238263201932800,6.984932861328125,-0.0518054962158203,-0.0071158409118652,-9.1176480054e-06
1761238263219971800,7.002971923828125,-0.0441913604736328,-0.00412268191576,0.0050185089930891
1761238263238011100,7.02101123046875,-0.0488862991333007,0.0003269165754318,-5.00166788697e-05
1761238263256049700,7.039049560546875,-0.0577220916748046,-0.0017585903406143,-0.0018943129107356
1761238263274085000,7.057085205078125,-0.0520734786987304,0.0009221956133842,-0.0020719422027468
1761238263292131600,7.075131591796875,0.692011833190918,-0.0366104841232299,0.0847358703613281
1761238263310153200,7.0931533203125,0.0269174575805664,-0.0126770064234733,0.0105826072394847
1761238263339481900,7.12248193359375,-0.4151268005371094,0.0119009166955947,-0.038628127425909
1761238263357520600,7.140520751953125,0.966665267944336,-0.0334692262113094,0.1145743802189827
1761238263375559700,7.1585595703125,-0.2359848022460937,0.0025488510727882,-0.0236088726669549
1761238264529049300,0.20404931640625,-0.0510129928588867,0.0051818564534187,0.0019978126510977
1761238264547099100,0.22209912109375,-0.0516796112060546,-0.0012298300862312,0.0026428494602441
1761238264565138000,0.240137939453125,-0.0485439300537109,-8.60542058944e-05,0.0021962402388453
1761238264583177200,0.25817724609375,-0.0505952835083007,-0.0037514343857765,0.0039821090176701
1761238264601216300,0.27621630859375,-0.0559005737304687,-0.0029269978404045,-0.003535215742886
1761238264619255300,0.29425537109375,-0.0549955368041992,-0.0040584206581115,0.0051327431574463
1761238264637291300,0.312291259765625,-0.0500946044921875,-0.0035353451967239,0.0008824076503515
1761238264655336400,0.33033642578125,-0.051483154296875,-0.0067749544978141,0.0095000481233
1761238264673372200,0.3483720703125,-0.0549240112304687,-0.0027355179190635,0.0020905314013361
1761238264691411200,0.3664111328125,-0.0544967651367187,-0.002463512122631,0.0007948456332087
1761238264709450000,0.384449951171875,-0.0507183074951171,0.0012354925274848,0.0063551366329193
1761238264727489800,0.40248974609375,-0.0498037338256835,0.0009825378656387,0.004113639704883
1761238264745528300,0.4205283203125,-0.0601739883422851,-0.0058204233646392,-0.0039698826149106
1761238264763567900,0.43856787109375,-0.0660285949707031,0.0022447630763053,0.0048788739368319
1761238264781607000,0.45660693359375,-0.056528091430664,-0.0003350153565406,0.0023798290640115
1761238264799645700,0.474645751953125,-0.0478420257568359,-0.0028749108314514,0.009494992904365
1761238264817684700,0.492684814453125,-0.0517578125,0.0048692896962165,0.0086041325703263
1761238264835723800,0.510723876953125,-0.0562906265258789,0.0014547184109687,0.0098880613222718
1761238264853762800,0.5287626953125,-0.0513734817504882,-0.0030763670802116,0.002063550055027
1761238264871793700,0.546793701171875,-0.053959846496582,-0.0017850026488304,0.0067788520827889
1761238264889840400,0.56484033203125,-0.0545015335083007,-0.0030707269906997,0.0016249855980277
1761238264907879700,0.582879638671875,-0.0490398406982421,-0.0010830387473106,0.0091447625309228
1761238264925919200,0.600919189453125,-0.0538644790649414,-0.0015371218323707,-0.001685214228928
1761238264943958300,0.618958251953125,-0.052474021911621,0.0044595748186111,0.0017076376825571
1761238264961997000,0.6369970703125,-0.0635662078857421,-0.0044050589203834,0.0027229217812418
1761238264980034800,0.655034912109375,-0.0525321960449218,-0.0061847642064094,0.0060902349650859
1761238264998076400,0.673076416015625,-0.0439376831054687,-0.005748264491558,0.0106657892465591
1761238265016114000,0.691114013671875,-0.0496826171875,0.005571149289608,0.0059474101290106
1761238265034153000,0.709153076171875,-0.0504083633422851,0.0015927776694297,-0.0002239504829049
1761238265052192000,0.72719189453125,-0.0534706115722656,-0.0029128938913345,0.0123644554987549
1761238265070230300,0.745230224609375,-0.0456428527832031,-0.0028169602155685,0.0025929678231477
1761238265088271400,0.763271240234375,-0.049015998840332,-0.0012560784816741,0.0052156867459416
1761238265106309600,0.7813095703125,-0.0447578430175781,-0.0038219839334487,0.0059247640892863
1761238265124345600,0.799345703125,-0.0532598495483398,-0.0065474435687065,0.0054874755442142
1761238265142388000,0.817387939453125,-0.0517358779907226,-0.0049190819263458,0.0054684588685631
1761238265160428800,0.8354287109375,-0.0465955734252929,-0.008243054151535,0.0031110718846321
1761238265178465300,0.85346533203125,-0.0553131103515625,-0.0030179992318153,0.0133929559960961
1761238265196504300,0.87150439453125,-0.0511789321899414,-0.002998910844326,0.0011692177504301
1761238265214539500,0.88953955078125,-0.0510311126708984,-0.0050749033689498,0.0058213835582137
1761238265232582400,0.90758251953125,-0.0528345108032226,-0.0081100016832351,0.0040544876828789
1761238265250621400,0.925621337890625,-0.05908203125,-0.0093773305416107,0.0077823232859373
1761238265268660700,0.94366064453125,-0.0478553771972656,-0.0100318640470504,0.0049599912017583
1761238265286699500,0.961699462890625,-0.047088623046875,-0.0018710643053054,0.0103152077645063
1761238265304735700,0.97973583984375,-0.0554008483886718,0.0003094300627708,0.0030369739979505
1761238265322781000,0.997781005859375,-0.057356834411621,-0.0036320611834526,0.0026248404756188
1761238265340816600,1.015816650390625,-0.0548887252807617,-0.0083587318658828,0.0133191645145416
1761238265358855700,1.033855712890625,-0.0557689666748046,-0.0044465437531471,-0.0032513607293367
1761238265376882700,1.051882568359375,-0.0562381744384765,-0.0039763003587722,-0.0038517247885465
1761238265394929000,1.069928955078125,-0.0540237426757812,-0.0073068663477897,0.0006203250959515
1761238265412957200,1.087957275390625,-0.0494775772094726,-0.0040622875094413,0.0044044135138392
1761238265431012000,1.10601220703125,-0.056828498840332,0.0016919523477554,0.0084520261734724
1761238265449050600,1.124050537109375,-0.0531549453735351,-0.0057333037257194,-0.0009514857083559
1761238265467089700,1.142089599609375,-0.053135871887207,-0.0051073804497718,-0.0021745096892118
1761238265485128700,1.160128662109375,-0.050978660583496,-0.0062703862786293,0.0029513798654079
1761238265503168000,1.17816796875,-0.0539569854736328,-0.0054468959569931,0.0036919135600328
1761238265521207300,1.196207275390625,-0.0589513778686523,-0.0036708191037178,0.0096628563478589
1761238265539246000,1.21424609375,-0.0506753921508789,-0.0031421780586242,0.0054098572582006
1761238265557285000,1.23228515625,-0.0619173049926757,-0.0012569427490234,0.0075406935065984
1761238265575324400,1.250324462890625,-0.0523157119750976,-0.0009498968720436,0.0090147051960229
1761238265593363000,1.268363037109375,-0.0427799224853515,0.000426210463047,0.0077939620241522
1761238265611401700,1.286401611328125,-0.0481014251708984,-0.0015400350093841,0.0053175492212176
1761238265629441000,1.30444091796875,-0.0542793273925781,-0.0034945681691169,-0.0005242731422185
1761238265647479800,1.322479736328125,-0.0472269058227539,0.0024066269397735,0.0047421511262655
1761238265665519000,1.34051904296875,-0.0496788024902343,-0.0060001164674758,0.0001957137137651
1761238265683558000,1.358557861328125,-0.0529670715332031,-0.0034338906407356,0.0051014870405197
1761238265701597400,1.376597412109375,-0.057509422302246,-0.005659706890583,0.0110915480181574
1761238265719636700,1.39463671875,-0.0566310882568359,-0.0013879984617233,0.0059218620881438
1761238265737675300,1.41267529296875,-0.0480861663818359,0.0045274794101715,0.002424250356853
1761238265755714000,1.430714111328125,-0.0522375106811523,-0.0060163810849189,0.0059104952961206
1761238265773753300,1.44875341796875,-0.0501089096069335,-0.0009228512644767,0.0093711633235216
1761238265791792000,1.466792236328125,-0.0557527542114257,-0.0069537162780761,-0.0020860871300101
1761238265809831000,1.484830810546875,-0.0484647750854492,-2.7596950531e-05,-0.0015324661508202
1761238265827870000,1.502869873046875,-0.0539731979370117,-0.0014571622014045,0.0002455003559589
1761238265845912000,1.520912109375,-0.0502023696899414,-0.0067588314414024,0.0033122347667813
1761238265863945500,1.538945556640625,-0.0588312149047851,-0.002005361020565,0.0077483244240283
1761238265881987300,1.5569873046875,-0.0565776824951171,-0.0044122263789176,0.0102630294859409
1761238265900025300,1.575025390625,-0.0508089065551757,-0.0082243010401725,0.0078472178429365
1761238265918066700,1.593066650390625,-0.048013687133789,-0.0024961978197097,0.0009648744016885
1761238265936104700,1.611104736328125,-0.0540447235107421,0.0003851950168609,0.0100009087473154
1761238265954143200,1.629143310546875,-0.0552530288696289,-0.0011620596051216,-0.0035896189510822
1761238265972180200,1.64718017578125,-0.0477867126464843,-0.0039247497916221,0.006195405498147
1761238265990223600,1.6652236328125,-0.0476160049438476,-0.0016545578837394,0.0017418414354324
1761238266008260000,1.683260009765625,-0.0520601272583007,-0.0111526027321815,0.006827943958342
1761238266026299100,1.701299072265625,-0.0450086593627929,0.0006435215473175,0.0078313257545232
1761238266044340200,1.71934033203125,-0.0500869750976562,-0.0106673166155815,0.0009284298866987
1761238266062377500,1.73737744140625,-0.0421915054321289,-0.0033801421523094,-0.000207345932722
1761238266080416300,1.755416259765625,-0.0452299118041992,-0.0053922086954116,0.0028660502284765
1761238266098455600,1.77345556640625,-0.0458583831787109,-0.0024192482233047,0.0072711054235696
1761238266116494800,1.791494873046875,-0.0529909133911132,-0.0105025991797447,-0.0010234117507934
1761238266134528500,1.809528564453125,-0.0513477325439453,-0.0034633055329322,0.0047183511778712
1761238266152572400,1.827572509765625,-0.052530288696289,-0.0060871317982673,0.0034108934924006
1761238266170611200,1.845611083984375,-0.0527601242065429,-0.0086655169725418,-0.0013524256646633
1761238266188650500,1.863650390625,-0.0491762161254882,-0.0021491199731826,0.0056269252672791
1761238266206689500,1.881689453125,-0.0525007247924804,0.0003175660967826,0.0018064519390463
1761238266224724000,1.899723876953125,-0.0521011352539062,-0.0040410906076431,-0.0015209782868623
1761238266242759000,1.917759033203125,-0.0477418899536132,-0.0045285373926162,0.0011612139642238
1761238266260806700,1.935806640625,-0.0576105117797851,-0.0038237124681472,0.0018230574205517
1761238266278845700,1.953845703125,-0.0472908020019531,-0.0023457407951354,0.0014122081920504
1761238266296884200,1.97188427734375,-0.0493507385253906,-0.0045888721942901,0.0020619537681341
1761238266314923500,1.989923583984375,-0.0504789352416992,-0.0040873289108276,0.0035614436492323
1761238266332962300,2.00796240234375,-0.054570198059082,-0.0075056254863739,-0.0012041330337524
1761238266351001600,2.026001708984375,-0.0444536209106445,-0.0050753429532051,-0.0021758843213319
1761238266369040400,2.044040283203125,-0.0558443069458007,-0.0092200338840484,-0.0052231568843126
1761238266387079400,2.062079345703125,-0.0556716918945312,-0.009659968316555,-0.0009643072262406
1761238266405118500,2.080118408203125,-0.0582551956176757,-0.0086473375558853,0.0016404911875724
1761238266423157800,2.09815771484375,-0.0420780181884765,0.0056042000651359,0.0081353317946195
1761238266441196800,2.11619677734375,-0.0493097305297851,-0.0022426918148994,-0.0020501669496297
1761238266459235600,2.134235595703125,-0.0545778274536132,-0.0033958405256271,0.0028702970594167
1761238266477275000,2.15227490234375,-0.0526552200317382,-0.0009527578949928,-0.0003024553880095
1761238266495313400,2.1703134765625,-0.0472164154052734,1.60634517669e-05,0.0052744951099157
1761238266513352400,2.1883525390625,-0.0562658309936523,0.0037893205881118,0.0003767656162381
1761238266531391500,2.2063916015625,-0.0589733123779296,-0.0023616850376129,0.0088096130639314
1761238266549430300,2.22443017578125,-0.0526018142700195,-0.0016220435500144,0.0025476329028606
1761238266567469600,2.242469482421875,-0.0402498245239257,-0.0094246715307235,0.0003726733848452
1761238266585508900,2.2605087890625,-0.0462760925292968,-0.0047596171498298,-0.002647771500051
1761238266603547600,2.278547607421875,-0.0434885025024414,-0.003487579524517,0.0001546749845147
1761238266621586700,2.296586669921875,-0.0555667877197265,-0.0036166161298751,-0.0045824572443962
1761238266639623400,2.31462353515625,-0.0573225021362304,-0.0030601769685745,-0.0017220703884959
1761238266657666800,2.332666748046875,-0.0486688613891601,-0.0037741363048553,0.0024392865598201
1761238266675703600,2.35070361328125,-0.049560546875,-0.0046888962388038,0.0073633603751659
1761238266693742300,2.368742431640625,-0.0508718490600585,-0.0036271214485168,0.0022541647776961
1761238266711781000,2.386781005859375,-0.0510244369506835,-0.0043002218008041,0.0005413247272372
1761238266729820200,2.404820068359375,-0.0512104034423828,-0.0050156787037849,0.0025613568723201
1761238266747859200,2.422859130859375,-0.0487880706787109,-0.0011804029345512,0.0016691302880644
1761238266765898500,2.4408984375,-0.0548105239868164,-0.0038350224494934,-4.50918450951e-05
1761238266783937800,2.458937744140625,-0.0550355911254882,0.0005875080823898,0.001999550499022
1761238266801976300,2.476976318359375,-0.0518913269042968,-0.005799226462841,-0.0006808089092373
1761238266820014000,2.49501416015625,-0.04931640625,-0.0079460367560386,0.0058746766299009
1761238266838055700,2.5130556640625,-0.0478343963623046,-0.0139324553310871,-0.0019262004643678
1761238266856093400,2.531093505859375,-0.0505943298339843,-0.0008785873651504,-0.0004429845139384
1761238266874132200,2.54913232421875,-0.0581378936767578,-0.0071076452732086,0.0026571257039904
1761238266892171300,2.567171142578125,-0.0528907775878906,-0.0077927187085151,0.0032460037618875
1761238266910210000,2.5852099609375,-0.0585603713989257,-0.0016284584999084,-0.0001962939277291
1761238266928249000,2.6032490234375,-0.0441150665283203,-0.0024281293153762,0.002953459508717
1761238266946288400,2.621288330078125,-0.0505332946777343,-0.0082639530301094,0.0006405189633369
1761238266964327000,2.639326904296875,-0.0515651702880859,-0.00440464168787,0.0066334819421172
1761238266982366200,2.6573662109375,-0.0470485687255859,-9.25362110137e-05,-0.0029102908447384
1761238267000405200,2.6754052734375,-0.0481071472167968,-0.0043017417192459,-0.0038157887756824
1761238267018444300,2.6934443359375,-0.0493383407592773,-0.0047481879591941,0.0036466149613261
1761238267036483300,2.7114833984375,-0.0564231872558593,-0.004029668867588,0.0014591598883271
1761238267054518300,2.729518310546875,-0.042123794555664,-0.0019080117344856,0.0017817141488194
1761238267072561200,2.74756103515625,-0.0520439147949218,-0.004266582429409,0.00426004268229
1761238267090600000,2.765599853515625,-0.0512018203735351,-0.0022002011537551,-0.0055678663775324
1761238267108639500,2.783639404296875,-0.05303955078125,-0.0048919841647148,-0.0015308875590562
1761238267126675500,2.801675537109375,-0.0515727996826171,-0.0086355954408645,-0.0032794922590255
1761238267144717000,2.819717041015625,-0.0494260787963867,-0.0095759630203247,0.0042522065341472
1761238267162759000,2.837759033203125,-0.0545253753662109,0.0014659911394119,-0.0029215905815362
1761238267180795100,2.855795166015625,-0.0471563339233398,0.0011461898684501,-0.0002654334530234
1761238267198834000,2.873833984375,-0.0622997283935546,-0.0034683495759963,-0.0057422844693064
1761238267216877000,2.891876953125,-0.050246238708496,0.0009295865893363,0.0023737950250506
1761238267234912000,2.909912109375,-0.050908088684082,-0.0014992952346801,0.0037614721804857
1761238267252951000,2.927950927734375,-0.0460205078125,-0.001602791249752,-0.0024728737771511
1761238267270990000,2.945989990234375,-0.048553466796875,-0.0011940449476242,0.0011090440675616
1761238267289029000,2.964029052734375,-0.0524930953979492,0.0051952004432678,0.0006142277270555
1761238267307066400,2.98206640625,-0.0432262420654296,-0.0026638433337211,0.0001684818416833
1761238267325109200,3.000109130859375,-0.0450973510742187,-0.0060945823788642,0.0060388995334506
1761238267343146200,3.018146240234375,-0.0562467575073242,-0.0085789114236831,-0.0024036541581153
1761238267361184500,3.0361845703125,-0.0457687377929687,-0.0063031092286109,-0.0017143888399004
1761238267379212000,3.0542119140625,-0.0517253875732421,-0.0095793828368186,-0.0021298276260495
1761238267397263000,3.07226318359375,-0.0489177703857421,0.0001293495297431,0.0026005627587437
1761238267415289900,3.090289794921875,-0.046431541442871,-0.0053509473800659,-6.4673833549e-05
1761238267433341000,3.1083408203125,-0.049199104309082,-0.0096441358327865,0.0009106146171689
1761238267451379700,3.126379638671875,-0.0506200790405273,0.0029183849692344,-0.0068171536549925
1761238267469418500,3.14441845703125,-0.0487728118896484,-0.0057082027196884,0.0004329727962613
1761238267487457300,3.162457275390625,-0.0519275665283203,-0.000654250383377,-0.0017757015302777
1761238267505497000,3.1804970703125,-0.050384521484375,-0.006803810596466,0.0084474524483084
1761238267523535600,3.19853564453125,-0.0527610778808593,-0.0068956464529037,0.0049438253045082
1761238267541575000,3.216574951171875,-0.0453348159790039,-0.0066950023174285,0.000693142414093
1761238267559613700,3.23461376953125,-0.0608024597167968,-0.0058943107724189,-0.0048922197893261
1761238267577642500,3.252642578125,-0.0585918426513671,-0.0004855617880821,-0.0031596850603818
1761238267595691500,3.27069140625,-0.0553722381591796,-0.0036045312881469,0.0073747234418988
1761238267613730800,3.288730712890625,-0.0480899810791015,-0.0091497227549552,0.0023740781471133
1761238267631765500,3.306765625,-0.0503053665161132,-0.014703132212162,-0.0038600955158472
1761238267649795300,3.32479541015625,-0.0468120574951171,-0.0027337819337844,0.001740981824696
1761238267667842000,3.342842041015625,-0.0592060089111328,-0.0035516247153282,-0.0032433345913887
1761238267685877500,3.36087744140625,-0.0533809661865234,-0.0027153715491294,-0.0022681122645735
1761238267703925800,3.37892578125,-0.0475282669067382,-0.0004267990589141,-0.0009345263242721
1761238267721964500,3.396964599609375,-0.048283576965332,-0.003107912838459,-0.001423348672688
1761238267740002600,3.41500244140625,-0.0508289337158203,-0.0040888041257858,-0.0019255075603723
1761238267758043400,3.43304345703125,-0.0457372665405273,0.0006897374987602,0.0056652585044503
1761238267776081400,3.451081298828125,-0.0536108016967773,-0.0038215816020965,0.0059893932193517
1761238267794121700,3.469121826171875,-0.0525236129760742,-0.0049653798341751,-4.89680096507e-05
1761238267812155000,3.48715478515625,-0.0497007369995117,0.0016164928674697,0.0019593397155404
1761238267830200800,3.505200927734375,-0.0490446090698242,-0.0059977322816848,0.0025094337761402
1761238267848237000,3.523237060546875,-0.0488948822021484,-0.0096882730722427,0.0001684632152318
1761238267866276000,3.541276123046875,-0.043889045715332,-0.007106639444828,0.0014752158895134
1761238267884313300,3.559313232421875,-0.050236701965332,-0.0021535158157348,-0.0011277217417955
1761238267902354400,3.5773544921875,-0.0459060668945312,-0.0020771324634552,0.0038590338081121
1761238267920393200,3.595393310546875,-0.0458135604858398,-0.0037292540073394,-0.0028718998655676
1761238267938432000,3.613431884765625,-0.0512237548828125,-0.0004540681838989,-0.0030613942071795
1761238267956471000,3.631470947265625,-0.0436935424804687,-0.0034928917884826,0.0007106093689799
1761238267974503400,3.64950341796875,-0.0558090209960937,-0.006935179233551,0.0032288720831274
1761238267992552200,3.66755224609375,-0.0603532791137695,-0.0072957575321197,-0.001226782798767
1761238268010587600,3.685587646484375,-0.0517473220825195,-0.0019783675670623,-0.0028139883652329
1761238268028626700,3.703626708984375,-0.0570631027221679,-0.003725528717041,-0.0016942797228693
1761238268046665700,3.721665771484375,-0.0421791076660156,-0.0041883066296577,-0.0033869231119751
1761238268064704800,3.739704833984375,-0.0480298995971679,0.000572383403778,0.0036376994103193
1761238268082743600,3.75774365234375,-0.0485239028930664,-0.0048258081078529,0.0037587126716971
1761238268100782800,3.775782958984375,-0.048166275024414,-0.0009902715682983,0.0023491010069847
1761238268118821600,3.793821533203125,-0.0387134552001953,-0.0065262392163276,0.0013561397790908
1761238268136860400,3.8118603515625,-0.0508918762207031,-0.002037301659584,0.0019684080034494
1761238268154899700,3.829899658203125,-0.0529289245605468,0.0015022233128547,-0.0006780605763196
1761238268172938500,3.8479384765625,-0.0544900894165039,-0.0058893635869026,0.0030924119055271
1761238268190977800,3.865977783203125,-0.0514535903930664,0.0045362785458564,-0.0060049192979931
1761238268209016300,3.884016357421875,-0.0529193878173828,-0.0038174539804458,-0.0061560748144984
1761238268227055400,3.902055419921875,-0.0550699234008789,-0.0029524341225624,0.0049005672335624
1761238268245094100,3.92009423828125,-0.0537233352661132,0.0012464448809623,0.0027856994420289
1761238268263133400,3.938133544921875,-0.0537424087524414,-0.0050212889909744,0.004811318591237
1761238268281172200,3.956172119140625,-0.0493288040161132,-0.0069817155599594,0.00397923681885
1761238268299211300,3.974211181640625,-0.046548843383789,-0.0057739242911338,-0.0004590190947055
1761238268317249800,3.992249755859375,-0.0577592849731445,-0.0063200294971466,1.62087380886e-05
1761238268335289000,4.0102890625,-0.0449581146240234,-0.0033615306019783,0.0067467875778675
1761238268353327600,4.02832763671875,-0.0490055084228515,-0.0008595958352088,0.0014433097094297
1761238268371367000,4.046366943359375,-0.05267333984375,-0.0005070716142654,0.000358304940164
1761238268389406000,4.064406005859375,-0.0499525070190429,-0.0004551261663436,0.0025586262345314
1761238268407445500,4.082445556640625,-0.0462808609008789,-0.0030759125947952,0.0021892338991165
1761238268425484000,4.100484130859375,-0.0500202178955078,-0.0038048401474952,0.0071376683190464
1761238268443523000,4.118523193359375,-0.0455303192138671,0.0022701472043991,0.0016467049717903
1761238268461562000,4.13656201171875,-0.048588752746582,0.0016516521573066,-0.0004402492195367
1761238268479597800,4.154597900390625,-0.049285888671875,-0.0095271468162536,0.0024113291874527
1761238268497642500,4.172642578125,-0.0487375259399414,0.0010974630713462,-0.0029988465830683
1761238268515678500,4.190678466796875,-0.0593767166137695,0.001435287296772,0.0017258897423744
1761238268533717500,4.208717529296875,-0.0485496520996093,-6.88731670379e-05,-0.0006412845104932
1761238268551744800,4.226744873046875,-0.0457849502563476,0.0051035284996032,-0.0009654611349105
1761238268569795300,4.24479541015625,-0.0526609420776367,-0.0082205757498741,0.000642767176032
1761238268587834600,4.262834716796875,-0.047764778137207,-0.0112661570310592,-0.0068024089559912
1761238268605873400,4.280873291015625,-0.0484485626220703,-0.0048892870545387,-0.0019647935405373
1761238268623912700,4.29891259765625,-0.0554018020629882,-0.0031945928931236,0.0009257020428776
1761238268641949700,4.31694970703125,-0.0547599792480468,-0.0018352568149566,0.0041062571108341
1761238268659991000,4.334990966796875,-0.0528879165649414,-0.0022708922624588,0.0010719122365117
1761238268678030300,4.3530302734375,-0.0556497573852539,-0.0049588307738304,0.0006616581231355
1761238268696068000,4.371068115234375,-0.048232078552246,-0.0037420615553855,-0.0001784898340702
1761238268714106600,4.389106689453125,-0.0503444671630859,-0.0016661509871482,0.0032276744022965
1761238268732146000,4.40714599609375,-0.0472078323364257,0.0008841380476951,0.0058604935184121
1761238268750184700,4.425184814453125,-0.0466165542602539,-0.0045459046959877,0.0063072331249713
1761238268768223700,4.4432236328125,-0.0501480102539062,-0.0052902474999427,0.003234882839024
1761238268786262800,4.4612626953125,-0.0531826019287109,-0.0027515217661857,0.0057474486529827
1761238268804301600,4.479301513671875,-0.0491008758544921,-0.004598818719387,-0.0004988657310605
1761238268822340600,4.497340576171875,-0.049452781677246,-0.0064665526151657,0.0026437770575284
1761238268840379600,4.515379638671875,-0.0517816543579101,-0.0014101266860961,0.0131102232262492
1761238268858418700,4.533418701171875,-0.0498876571655273,-0.0052047818899154,0.0018736952915787
1761238268876457700,4.551457763671875,-0.047804832458496,-0.0017904639244079,-0.0031298510730266
1761238268894493200,4.5694931640625,-0.047865867614746,-0.0022781714797019,0.0030333781614899
1761238268912535300,4.587535400390625,-0.0497217178344726,-0.0016358494758605,0.0070965262129902
1761238268930574000,4.605573974609375,-0.0561294555664062,-0.0018519908189773,0.006039603613317
1761238268948613400,4.62361328125,-0.0413389205932617,-0.0003276392817497,0.0027491077780723
1761238268991454700,4.666454833984375,-0.0545263290405273,-0.0015037655830383,0.0068225478753447
1761238269009493800,4.68449365234375,-0.0468177795410156,0.0043812841176986,-0.0008342741057276
1761238269027529500,4.702529541015625,-0.0492992401123046,-0.0005916059017181,0.0058604590594768
1761238269045574700,4.72057470703125,-0.048537254333496,0.0033523887395858,0.0009452207013964
1761238269063610400,4.7386103515625,-0.0437097549438476,0.0009614750742912,0.0037218844518065
1761238269081650000,4.75664990234375,-0.0556716918945312,-0.0018337666988372,0.0093333339318633
1761238269099688000,4.77468798828125,-0.050638198852539,-0.0045875161886215,0.0022184383124113
1761238269117727000,4.79272705078125,-0.0539379119873046,-0.0049979537725448,0.005169378593564
1761238269135766000,4.81076611328125,-0.051025390625,-0.0008451715111732,0.0067427679896354
1761238269153805000,4.82880517578125,-0.049570083618164,0.002615563571453,0.008590443059802
1761238269171843600,4.846843505859375,-0.0492067337036132,0.0031338930130004,0.0083415620028972
1761238269189882400,4.86488232421875,-0.0551424026489257,0.000819869339466,0.0042195841670036
1761238269207922700,4.882922607421875,-0.0504159927368164,-0.0001715496182441,0.0053734676912426
1761238269225961200,4.900961181640625,-0.0537605285644531,-0.0014116168022155,0.004782810807228
1761238269243999700,4.918999755859375,-0.0526237487792968,0.0002775564789772,0.0041605709120631
1761238269262038800,4.937038818359375,-0.0490398406982421,0.0056439042091369,0.0053026657551527
1761238269280076300,4.955076171875,-0.0467100143432617,0.0063920989632606,0.0056596146896481
1761238269298118100,4.9731181640625,-0.0422964096069335,0.0026027634739875,0.0085304547101259
1761238269316155000,4.99115478515625,-0.048614501953125,-0.0009798780083656,0.0062562078237533
1761238269334194200,5.009194091796875,-0.0550527572631835,0.0025343894958496,0.0099238092079758
1761238269352235000,5.027235107421875,-0.0534696578979492,0.0003494098782539,0.0075968690216541
1761238269370272500,5.0452724609375,-0.0472383499145507,0.0067894086241722,0.0072255237028002
1761238269388311000,5.06331103515625,-0.0493631362915039,0.0066867992281913,-0.0010609291493892
1761238269406350000,5.08135009765625,-0.0467615127563476,-0.0013027861714363,0.0062993066385388
1761238269424385800,5.0993857421875,-0.052215576171875,0.003892458975315,0.0082370555028319
1761238269442428400,5.117428466796875,-0.0512523651123046,0.0034030601382255,0.0066735353320837
1761238269460466700,5.135466796875,-0.0481834411621093,-0.0036421567201614,0.0042796777561306
1761238269478505700,5.153505615234375,-0.0477190017700195,0.0011825114488601,0.0061639994382858
1761238269496544800,5.171544677734375,-0.0494356155395507,0.0008110031485557,0.0061143664643168
1761238269514572800,5.18957275390625,-0.0522537231445312,0.0019259303808212,0.0060917418450117
1761238269532622300,5.207622314453125,-0.0471982955932617,0.0010472163558006,-0.0008345460519194
1761238269550662000,5.225661865234375,-0.0475711822509765,0.0009758174419403,0.0045965705066919
1761238269568700400,5.243700439453125,-0.0519723892211914,-0.0002606287598609,0.0089232986792922
1761238269586739700,5.26173974609375,-0.0471582412719726,0.0008333772420883,0.003815452568233
1761238269604778000,5.279778076171875,-0.0541868209838867,-0.0007654726505279,0.010533245280385
1761238269622817000,5.297817138671875,-0.0504179000854492,-0.0009150132536888,0.0058174980804324
1761238269640856300,5.315856201171875,-0.0469217300415039,-0.0010151639580726,0.0081050666049122
1761238269658895600,5.3338955078125,-0.050088882446289,-0.0021108165383338,0.0064203888177871
1761238269676934000,5.351933837890625,-0.0496549606323242,-0.0010467693209648,0.004403137601912
1761238269694973000,5.369972900390625,-0.0478019714355468,-0.0039367377758026,0.0018201759085059
1761238269713012000,5.388011962890625,-0.0520095825195312,-0.0055492371320724,0.0053715519607067
1761238269731051000,5.406051025390625,-0.0510807037353515,-0.0036763399839401,0.0059689441695809
1761238269749089800,5.42408984375,-0.0470209121704101,-0.0056431293487548,0.0047970404848456
1761238269767128600,5.442128662109375,-0.0511178970336914,-0.0047514140605926,0.0076011670753359
1761238269785167400,5.46016748046875,-0.0569362640380859,-0.0047886967658996,0.0091394511982798
1761238269803208400,5.47820849609375,-0.0504646301269531,0.0022016987204551,0.0053026946261525
1761238269821243100,5.4962431640625,-0.0469264984130859,-0.0048634409904479,0.0059035029262304
1761238269839284200,5.5142841796875,-0.0518760681152343,0.0042299032211303,0.0038116732612252
1761238269857323500,5.532323486328125,-0.0495595932006835,0.0038175880908966,0.0056889541447162
1761238269875362300,5.5503623046875,-0.0537776947021484,-0.0013489127159118,0.0019143363460898
1761238269893400800,5.56840087890625,-0.0513496398925781,0.0001184418797492,0.0054472349584102
1761238269911440100,5.586440185546875,-0.057621955871582,0.0043851286172866,-0.0010639587417244
1761238269929478700,5.604478759765625,-0.0502882003784179,-0.0012029558420181,0.0050407880917191
1761238269947517200,5.62251708984375,-0.0483245849609375,0.0032272115349769,0.0057749561965465
1761238269965557500,5.6405576171875,-0.0483922958374023,-0.0031607896089553,0.0014134924858808
1761238269983595800,5.658595703125,-0.0449705123901367,0.0046887025237083,0.0027648648247122
1761238270001634300,5.67663427734375,-0.0496511459350585,0.0039587989449501,0.0075516477227211
1761238270019662000,5.694662109375,-0.0526542663574218,-0.0018798857927322,0.0003391653299331
1761238270037712400,5.71271240234375,-0.0511798858642578,0.0001889690756797,0.0003578606992959
1761238270055751400,5.73075146484375,-0.0480318069458007,0.0003222972154617,0.0043586278334259
1761238270073790200,5.748790283203125,-0.0493412017822265,0.0033300444483757,-0.0020634457468986
1761238270091829200,5.766829345703125,-0.0533781051635742,0.0054373666644096,0.0027604261413216
1761238270109867300,5.7848671875,-0.055633544921875,0.0069977045059204,0.0046806540340185
1761238270127906300,5.80290625,-0.046574592590332,0.0003322064876556,0.0038192393258213
1761238270145943000,5.820943115234375,-0.0491228103637695,0.0022186338901519,0.003086726181209
1761238270163993300,5.838993408203125,-0.0452222824096679,0.0025452077388763,0.0033395234495401
1761238270182011600,5.85701171875,-0.0427236557006835,-0.0013728216290473,0.0044402992352843
1761238270200062700,5.875062744140625,-0.0522356033325195,0.0021205246448516,0.0059102997183799
1761238270218101800,5.893101806640625,-0.0508947372436523,0.0015464127063751,0.0009071426466107
1761238270236140800,5.911140869140625,-0.0479907989501953,-0.0020724758505821,0.0030131191015243
1761238270254179300,5.929179443359375,-0.0520381927490234,-0.0031198263168334,0.0072779301553964
1761238270272218400,5.94721826171875,-0.0523662567138671,-0.0010650008916854,0.0010591549798846
1761238270290257000,5.9652568359375,-0.0511360168457031,0.0044360682368278,0.0001863138750195
1761238270308296700,5.983296630859375,-0.051091194152832,-4.58508729934e-05,-0.0030012940987944
1761238270326334700,6.001334716796875,-0.0528726577758789,-0.0024981275200843,-0.0033196751028299
1761238270344375800,6.019375732421875,-0.0502176284790039,-0.000981792807579,-0.0046332012861967
1761238270362412800,6.037412841796875,-0.0498161315917968,0.0091686844825744,-0.0050935177132487
1761238270380451000,6.055451171875,-0.0468301773071289,-0.000518076121807,-0.0007659057155251
1761238270398491600,6.07349169921875,-0.049931526184082,0.0042522102594375,0.0037696724757552
1761238270416529700,6.09152978515625,-0.0500555038452148,-0.0002158060669898,0.0022547738626599
1761238270434568700,6.109568603515625,-0.0509262084960937,-0.0021420046687126,0.0042281504720449
1761238270452607200,6.127607177734375,-0.0505495071411132,-0.0002592653036117,0.0036060102283954
1761238270903580200,0.222580078125,-0.0557832717895507,0.0004164278507232,-0.0041120992973446
1761238270921618400,0.240618408203125,-0.0473566055297851,-0.0023197829723358,0.0023852419108152
1761238270939657700,0.25865771484375,-0.0480928421020507,6.82398676872e-05,0.0023784721270203
1761238270957696500,0.276696533203125,-0.0475549697875976,-0.0006933510303497,0.0021056206896901
1761238270975735600,0.294735595703125,-0.0530996322631835,0.0070026367902755,0.0023774523288011
1761238270993774000,0.312774169921875,-0.0455322265625,-0.0034854039549827,-0.0077698798850178
1761238271011813400,0.3308134765625,-0.0490980148315429,-0.0043626949191093,-0.0013370923697948
1761238271029852700,0.348852783203125,-0.0549783706665039,-0.0011310577392578,0.0028168279677629
1761238271047879200,0.366879150390625,-0.0503854751586914,-0.0036516264081001,0.0032666325569152
1761238271065929700,0.3849296875,-0.0469083786010742,-0.0021616891026496,0.003375899977982
1761238271083966700,0.402966796875,-0.0493059158325195,-0.0030130818486213,-0.0006004581227898
1761238271102010000,0.421010009765625,-0.047882080078125,-0.0050302073359489,0.0017837928608059
1761238271120046600,0.439046630859375,-0.0494537353515625,-0.0024346932768821,-0.0048865769058465
1761238271138084900,0.4570849609375,-0.0503396987915039,-0.0049973353743553,-0.0005648350343108
1761238271156124400,0.47512451171875,-0.0428380966186523,-0.0055247768759727,-0.0010466612875461
1761238271174163200,0.4931630859375,-0.0496864318847656,-0.0054572746157646,0.000250426121056
1761238271192202000,0.511201904296875,-0.0495834350585937,-0.0015496611595153,-0.0039018765091896
1761238271210239500,0.529239501953125,-0.0464191436767578,-0.0002705231308937,0.002512264996767
1761238271228281300,0.54728125,-0.0469541549682617,-0.0061263814568519,-0.0007249508053064
1761238271246318300,0.565318359375,-0.0557870864868164,-0.0031199976801872,0.0028335405513644
1761238271264359000,0.58335888671875,-0.0460767745971679,0.0032291784882545,0.0044803535565733
1761238271282396700,0.601396728515625,-0.0461091995239257,0.0005228295922279,0.0015907594934105
1761238271300435500,0.619435546875,-0.048044204711914,-0.0020765289664268,-0.0007219398394227
1761238271318474200,0.63747412109375,-0.042123794555664,-0.0034925937652587,0.0047832755371928
1761238271336513000,0.655512939453125,-0.0509958267211914,-0.0054408535361289,0.0037372438237071
1761238271354550000,0.673550048828125,-0.052703857421875,-0.0017220601439476,-0.0022897822782397
1761238271372591400,0.69159130859375,-0.0531034469604492,-0.0064431577920913,-0.0013896860182285
1761238271390629600,0.709629638671875,-0.0527982711791992,-0.0031189918518066,0.0016319071874022
1761238271408668700,0.727668701171875,-0.0482635498046875,-0.0055706873536109,0.0031418614089488
1761238271426707500,0.74570751953125,-0.0489978790283203,-0.0031027197837829,-0.0008752774447202
1761238271444746800,0.763746826171875,-0.0531721115112304,0.000333160161972,-0.0009602634236216
1761238271462785300,0.781785400390625,-0.0531549453735351,0.0020419135689735,0.0010776333510875
1761238271480824300,0.79982421875,-0.0471811294555664,-0.0076553151011466,0.0001762872561812
1761238271498862800,0.81786279296875,-0.0546846389770507,-0.0031977593898773,-5.1511451601e-06
1761238271516891100,0.83589111328125,-0.0452594757080078,-0.000892698764801,0.0011291801929473
1761238271534941200,0.853941162109375,-0.0482606887817382,-0.0053226649761199,0.0019652489572763
1761238271552979500,0.8719794921875,-0.0489978790283203,-0.0030919462442398,0.0019999053329229
1761238271571018200,0.890018310546875,-0.0507545471191406,-0.0065957605838775,-0.0050546340644359
1761238271589057500,0.9080576171875,-0.0538015365600585,-0.0032539069652557,-0.0037601562216877
1761238271607096300,0.926096435546875,-0.0521306991577148,-0.0067315846681594,-0.0019320743158459
1761238271625135000,0.944135009765625,-0.0448923110961914,0.0007625520229339,-0.0016678096726536
1761238271643174000,0.962173828125,-0.0484905242919921,0.0050117373466491,0.0025112722069025
1761238271661213400,0.98021337890625,-0.0472650527954101,-0.0044263377785682,-0.0009082816541194
1761238271679251700,0.998251708984375,-0.0522775650024414,-0.0030531361699104,-0.0053610755130648
1761238271697290800,1.016290771484375,-0.0501127243041992,-0.005729004740715,-0.005932911299169
1761238271715329300,1.034329345703125,-0.0428009033203125,-0.0072008967399597,-0.001903741620481
1761238271733369000,1.052369140625,-0.0493078231811523,-0.0007028058171272,-0.0032860860228538
1761238271751407900,1.070407958984375,-0.0514278411865234,-0.0009639337658882,-0.0042708329856395
1761238271769446400,1.0884462890625,-0.0476865768432617,-0.0029125437140464,0.0022232010960578
1761238271787484000,1.10648388671875,-0.0409250259399414,-0.0062528625130653,0.0007845237851142
1761238271805524700,1.124524658203125,-0.0408964157104492,-0.0021705999970436,0.0026113037019968
1761238271823562800,1.142562744140625,-0.0500297546386718,-0.0092541947960853,0.0002918019890785
1761238271841601800,1.160601806640625,-0.0536870956420898,-0.0101300701498985,-0.0012214053422212
1761238271859640300,1.178640380859375,-0.0429697036743164,-0.005723051726818,0.0003529321402311
1761238271877679900,1.196679931640625,-0.0522518157958984,-0.0010637417435646,0.0001057088375091
1761238271895718400,1.214718505859375,-0.0515241622924804,-0.0033049434423446,0.0015903320163488
1761238271913757200,1.232757080078125,-0.0483465194702148,-0.0067595615983009,0.0040421169251203
1761238271931795700,1.250795654296875,-0.047865867614746,-0.0024700760841369,-0.0005575241521
1761238271949831000,1.268830810546875,-0.0450115203857421,7.94231891632e-05,-0.0025653596967458
1761238271967866400,1.286866455078125,-0.0459413528442382,0.0003555044531822,-0.007751952856779
1761238271985912600,1.30491259765625,-0.0476465225219726,-0.0040905699133872,0.0003789234906435
1761238272003939300,1.322939208984375,-0.0519647598266601,-0.000803954899311,-0.0013384511694312
1761238272021990400,1.340990478515625,-0.0469932556152343,-0.000924989581108,0.0006372816860675
1761238272040028400,1.3590283203125,-0.0470132827758789,-0.0002798736095428,-0.0041286163032054
1761238272058069500,1.377069580078125,-0.049941062927246,-0.0030368417501449,0.0050564762204885
1761238272076106800,1.395106689453125,-0.0503835678100585,-0.0076682940125465,0.00250706076622
1761238272094146300,1.413146240234375,-0.0493125915527343,0.0008749887347221,0.0062677785754203
1761238272112181800,1.431181640625,-0.04736328125,0.0039210021495819,-0.0010595461353659
1761238272130226400,1.449226318359375,-0.0430068969726562,-0.0009022429585456,0.0027777506038546
1761238272148262100,1.46726220703125,-0.0475473403930664,0.0025128424167633,0.0048410734161734
1761238272166301700,1.4853017578125,-0.0433998107910156,-0.0058958828449249,-0.0015319138765335
1761238272184335600,1.503335693359375,-0.0441932678222656,-0.003012403845787,0.0014698058366775
1761238272202379000,1.52137890625,-0.0528020858764648,-0.0051805824041366,-0.0037478078156709
1761238272220417800,1.539417724609375,-0.0474042892456054,-0.0056870505213737,0.0013445112854242
1761238272238457300,1.557457275390625,-0.0499992370605468,0.0035909637808799,-0.0004521450027823
1761238272256495600,1.57549560546875,-0.0489692687988281,-0.0056467950344085,-0.0040495935827493
1761238272274530600,1.593530517578125,-0.0461740493774414,-0.0082016289234161,0.0042537450790405
1761238272292573000,1.611572998046875,-0.039778709411621,-0.0093728825449943,-0.0015753200277686
1761238272310612700,1.62961279296875,-0.0447807312011718,-0.0031213536858558,0.0045042857527732
1761238272328651000,1.647651123046875,-0.0395669937133789,-0.0086917206645011,0.0018192371353507
1761238272346690000,1.66568994140625,-0.0465354919433593,0.0009912922978401,0.0006644893437623
1761238272364728600,1.683728515625,-0.0487279891967773,-0.0051527172327041,0.0022273585200309
1761238272382768000,1.70176806640625,-0.0472745895385742,-0.0040095299482345,-0.0007727099582552
1761238272400806700,1.719806640625,-0.0459175109863281,-0.0009931325912475,0.0035759937018156
1761238272418845400,1.737845458984375,-0.0463600158691406,-0.0053301900625228,0.0035897819325327
1761238272436884000,1.755884033203125,-0.0457782745361328,-0.0029763877391815,0.002556006424129
1761238272454923300,1.77392333984375,-0.0456914901733398,-0.0037498623132705,0.0007103709504008
1761238272472962000,1.791962158203125,-0.0505294799804687,0.0017779543995857,0.0014265030622482
1761238272491000600,1.81000048828125,-0.0504703521728515,-0.0061610043048858,0.0022658994421362
1761238272509039400,1.828039306640625,-0.0504608154296875,-0.0044138878583908,0.0004141610115766
1761238272527078700,1.84607861328125,-0.0504589080810546,-0.0041867941617965,-0.0010648947209119
1761238272545117700,1.86411767578125,-0.046762466430664,-0.0083489716053009,0.0039937244728207
1761238272563156500,1.882156494140625,-0.0505456924438476,-0.0022240951657295,0.0067108133807778
1761238272581195000,1.900195068359375,-0.0506105422973632,-0.0013497620820999,-0.0010092481970787
1761238272599234600,1.918234619140625,-0.0563278198242187,-0.0026066824793815,-0.0048865368589758
1761238272617273000,1.936273193359375,0.104410171508789,-0.0076151639223098,0.0169511027634143
1761238272635311900,1.954311767578125,-0.3653020858764648,-0.0026890262961387,-0.0096383020281791
1761238272653350100,1.97235009765625,-0.130009651184082,-0.0054338425397872,-0.0033211596310138
1761238272671389700,1.9903896484375,-0.2172136306762695,0.0011658295989036,-0.0193831007927656
1761238272689430000,2.008429931640625,0.0060434341430664,0.0011226087808609,-0.0207338035106658
1761238272707465700,2.0264658203125,0.1168317794799804,-0.0120956003665924,0.0165594816207885
1761238272725507600,2.044507568359375,-0.039443016052246,-0.0002931579947471,-0.0007350975647568
1761238272743545000,2.062545166015625,-0.0429420471191406,-0.0015912801027297,0.0004006158560514
1761238272761583900,2.080583984375,-0.0481824874877929,-0.0058309733867645,0.002480000257492
1761238272779622700,2.09862255859375,-0.0525474548339843,0.0004179328680038,0.0033197086304426
1761238272797661400,2.116661376953125,-0.0507726669311523,-0.004958838224411,-0.0009678760543465
1761238272815700500,2.134700439453125,-0.0493669509887695,-0.0087939575314521,-0.0005969693884253
1761238272833739000,2.152739013671875,-0.0462303161621093,-0.0034023523330688,-0.0018746517598628
1761238272851768300,2.170768310546875,-0.0457534790039062,-0.0045886635780334,0.0009843772277235
1761238272869816800,2.18881689453125,-0.0486068725585937,-0.0059090033173561,-0.0021146684885025
1761238272887856600,2.206856689453125,-0.0449752807617187,-0.0061902999877929,0.0003542294725775
1761238272905894700,2.224894775390625,-0.0444278717041015,-0.0008415132761001,-0.0027541890740394
1761238272923933200,2.24293310546875,-0.0495424270629882,-0.0071849226951599,0.0033998247236013
1761238272941971700,2.2609716796875,-0.0491800308227539,-0.0092371925711631,0.0059865238144993
1761238272960010200,2.27901025390625,-0.0513992309570312,-0.0044943466782569,0.0036629009991884
1761238272978051000,2.297051025390625,-0.0471820831298828,-0.0040059015154838,-0.0007409630343317
1761238272996088800,2.3150888671875,-0.0458965301513671,-0.0048486590385437,-0.0032115206122398
1761238273014127600,2.333127685546875,-0.0515499114990234,-0.0033059269189834,-0.0001894077286124
1761238273032166700,2.351166748046875,-0.0494823455810546,-0.0078009814023971,0.00222900044173
1761238273050205200,2.369205078125,-0.0433216094970703,-0.007066510617733,0.001011342741549
1761238273068244200,2.387244140625,-0.0482368469238281,-0.0053096264600753,0.0032798303291201
1761238273086283000,2.405282958984375,-0.0519037246704101,-0.0101868957281112,0.002999760210514
1761238273104322000,2.423322021484375,-0.0466108322143554,-0.0041030272841453,0.0014680288732051
1761238273122360300,2.4413603515625,-0.0458106994628906,-0.0107862278819084,0.0010966565459966
1761238273140399400,2.4593994140625,-0.045689582824707,-0.0087450444698333,0.0097229834645986
1761238273158438000,2.47743798828125,-0.0497331619262695,-0.0014527887105941,0.0040139202028512
1761238273176477700,2.495477783203125,-0.0451459884643554,-0.0054754540324211,0.0013400753960013
1761238273194512400,2.513512451171875,-0.0496511459350585,-0.0049913600087165,0.0027937749400734
1761238273212555000,2.531554931640625,-0.043710708618164,-0.008029818534851,0.0010624565184116
1761238273230593500,2.549593505859375,-0.0500822067260742,-0.0083282217383384,0.0038521140813827
1761238273248633000,2.567633056640625,-0.0489749908447265,-0.0056097954511642,0.0001577977091073
1761238273266671400,2.58567138671875,-0.043243408203125,-0.0034249797463417,0.0020988378673791
1761238273284710400,2.60371044921875,-0.0493602752685546,-0.0049087330698966,0.0012729158625006
1761238273302748700,2.621748779296875,-0.0514249801635742,-0.0039165690541267,0.0010783933103084
1761238273320788000,2.6397880859375,-0.0505990982055664,-0.0046981051564216,0.0027026245370507
1761238273338815200,2.657815185546875,-0.0522623062133789,-0.0104265958070755,-0.0003000888973474
1761238273356853800,2.675853759765625,-0.0518627166748046,8.37221741676e-05,0.0040636658668518
1761238273374904300,2.693904296875,-0.0466032028198242,-0.0036872997879981,0.0009027756750583
1761238273392943400,2.711943359375,-0.0557184219360351,-0.0065580010414123,0.004298998042941
1761238273410982100,2.729982177734375,-0.0471887588500976,-0.0021746829152107,0.0008812956511974
1761238273429021200,2.748021240234375,-0.048048973083496,-0.0100734382867813,-0.0081381909549236
1761238273447057200,2.76605712890625,-0.0460281372070312,-0.007420465350151,0.0018699206411838
1761238273465101800,2.784101806640625,-0.0475091934204101,-0.0051226243376731,-0.0008824523538351
1761238273483137500,2.802137451171875,-0.0470838546752929,-0.0007160604000091,0.0016145845875144
1761238273501176300,2.82017626953125,-0.0476694107055664,-0.0047956109046936,0.0034638503566384
1761238273519200800,2.83820068359375,-0.0488967895507812,-0.0076046288013458,0.0036582769826054
1761238273537254400,2.85625439453125,-0.047943115234375,-0.0040675699710845,-0.001196825876832
1761238273555293000,2.87429296875,-0.0482873916625976,-0.0007399395108222,0.0038354787975549
1761238273573332000,2.89233203125,-0.0478515625,-0.0024702847003936,0.0032425243407487
1761238273591370200,2.910370361328125,-0.0547695159912109,-0.0034723877906799,0.0034237643703818
1761238273609409500,2.928409423828125,-0.0511064529418945,-0.0007775127887725,0.0005261739715933
1761238273627446800,2.94644677734375,-0.0453529357910156,-0.0073177292943,-0.0003159558400511
1761238273645488600,2.964488525390625,-0.042694091796875,-0.0015234723687171,-0.0031372671946883
1761238273663525600,2.982525634765625,-0.0463523864746093,-0.0036287829279899,-0.00145158264786
1761238273681565400,3.0005654296875,-0.0493421554565429,-0.0022366568446159,0.0019932482391595
1761238273699603500,3.018603515625,-0.0514202117919921,-0.0018518567085266,0.0003340560942888
1761238273717642500,3.036642578125,-0.0476722717285156,-0.0078161284327507,0.0046111475676298
1761238273735681000,3.054680908203125,-0.0430431365966796,-0.0098246112465858,0.0050678364932537
1761238273753720300,3.07272021484375,-0.0511159896850585,-0.0078869760036468,0.0031420178711414
1761238273771758800,3.0907587890625,-0.0494136810302734,-0.0056719854474067,0.001007973216474
1761238273789797400,3.10879736328125,-0.0502939224243164,0.0017858892679214,-0.0054730307310819
1761238273807834600,3.126834716796875,-0.0463647842407226,-0.0100367292761802,0.0012085614725947
1761238273825875700,3.144875732421875,-0.0446329116821289,-0.0112595632672309,0.0035298597067594
1761238273843914200,3.162914306640625,-0.0385236740112304,-0.0071844980120658,-0.0015406850725412
1761238273861953300,3.180953369140625,-0.0504322052001953,-0.0054899230599403,0.0020894482731819
1761238273879990800,3.19899072265625,-0.044600486755371,0.003015287220478,0.000791766680777
1761238273898031900,3.217031982421875,-0.0495662689208984,-0.0008096471428871,-0.0015916768461465
1761238273916068000,3.235068115234375,-0.052103042602539,-0.0053608268499374,-0.0015970319509506
1761238273934110000,3.25310986328125,-0.0477762222290039,-0.002312958240509,0.0042052790522575
1761238273952132400,3.27113232421875,-0.0489091873168945,-0.0056970342993736,-0.0037700431421399
1761238273970188300,3.289188232421875,-0.0409574508666992,-0.0052031874656677,-0.0012672115117311
1761238273988226000,3.30722607421875,-0.0478773117065429,-0.0081382915377616,0.0001480765640735
1761238274006263800,3.325263916015625,-0.0489234924316406,-0.0092264637351036,-0.0051241535693407
1761238274024290600,3.34329052734375,-0.0461578369140625,-0.0029432848095893,0.0038170125335454
1761238274042341600,3.361341552734375,-0.0486631393432617,-0.0085474401712417,-0.0044423099607229
1761238274060380200,3.379380126953125,-0.0479049682617187,-0.0098628476262092,0.0011455239728093
1761238274078419200,3.397419189453125,-0.0477886199951171,-0.0038706213235855,0.0044955043122172
1761238274096457500,3.41545751953125,-0.0500459671020507,-0.0023283511400222,6.89579173922e-05
1761238274114493400,3.433493408203125,-0.04632568359375,0.0072324126958847,0.0006217220798134
1761238274132535600,3.45153564453125,-0.0486879348754882,-0.0087408795952796,0.0030708946287631
1761238274150574600,3.46957470703125,-0.0461196899414062,-0.0049032568931579,0.0033544646576046
1761238274168612900,3.48761279296875,-0.048654556274414,-0.001475341618061,0.0043991263955831
1761238274186645200,3.505645263671875,-0.0476150512695312,-0.0040077790617942,0.0006421767175197
1761238274204691200,3.523691162109375,-0.0449609756469726,-0.0134888663887977,7.22268596291e-05
1761238274222729700,3.541729736328125,-0.0496177673339843,-0.0079330280423164,0.0045307157561182
1761238274240768800,3.559768798828125,-0.0480461120605468,-0.0078814029693603,-0.0002171546220779
1761238274258807600,3.5778076171875,-0.0500831604003906,-0.0126003921031951,-0.0029537612572312
1761238274276846000,3.59584619140625,-0.0521774291992187,-0.0053976252675056,0.0001494940370321
1761238274294880000,3.6138798828125,-0.0437202453613281,-0.0071637481451034,0.0041748685762286
1761238274312923400,3.63192333984375,-0.0482892990112304,-0.0079433768987655,-0.0041976002976298
1761238274330962700,3.649962646484375,-0.0559654235839843,0.000586599111557,-0.0011737672612071
1761238274349001500,3.66800146484375,-0.0454311370849609,-0.0049833729863166,0.0023194989189505
1761238274367040300,3.686040283203125,-0.0474090576171875,-0.0042092651128768,0.0009167734533548
1761238274385078800,3.704078857421875,-0.0412120819091796,-0.0040654391050338,0.0008600642904639
1761238274403118300,3.722118408203125,-0.0490474700927734,-0.0028894320130348,0.0065984521061182
1761238274421156600,3.740156494140625,-0.0443840026855468,-0.0038304403424263,0.0016482258215546
1761238274439195400,3.7581953125,-0.0524511337280273,-0.0023114532232284,-0.0013052159920334
1761238274457234000,3.77623388671875,-0.0484724044799804,-0.0026266723871231,0.0051259975880384
1761238274475273200,3.794273193359375,-0.0460834503173828,-0.0032977908849716,0.0052595436573028
1761238274493312000,3.81231201171875,-0.0457210540771484,-0.0035436451435089,0.0011577829718589
1761238274511351000,3.83035107421875,-0.0474538803100585,-0.0070000812411308,-0.000710342079401
1761238274529389300,3.848389404296875,-0.0517759323120117,-0.0066400915384292,-0.0007799454033374
1761238274547428400,3.866428466796875,-0.0447950363159179,-0.0082270726561546,0.0051801465451717
1761238274565464800,3.88446484375,-0.0513715744018554,-0.0054037123918533,0.0013164142146706
1761238274583506000,3.902505859375,-0.0424585342407226,-0.0062549710273742,0.0025205118581652
1761238274601547800,3.9205478515625,-0.0503721237182617,0.0020290464162826,0.0016854936257004
1761238274619581000,3.938580810546875,-0.0452308654785156,-0.0022280365228652,0.00263796094805
1761238274637625300,3.956625244140625,-0.0444555282592773,-0.0039116889238357,0.0057396832853555
1761238274655661000,3.9746611328125,-0.0483999252319335,-0.0028240829706192,0.0022235084325075
1761238274673699800,3.992699951171875,-0.0501346588134765,-0.0056048706173896,0.0041994741186499
1761238274691735600,4.010735595703125,-0.0451974868774414,0.000955007970333,0.0013934671878814
1761238274709777700,4.028777587890625,-0.0386009216308593,-0.0028529465198516,0.0047503197565674
1761238274727816400,4.04681640625,-0.0434532165527343,-0.0026322305202484,0.0032443832606077
1761238274745855000,4.06485498046875,-0.0500354766845703,-0.0097126364707946,0.0030151745304465
1761238274763894500,4.08289453125,-0.0503816604614257,-0.0027622431516647,0.0030675781890749
1761238274781930000,4.100929931640625,-0.0434474945068359,-0.0045695304870605,0.0030986908823251
1761238274799974100,4.11897412109375,-0.045323371887207,-0.0047486722469329,0.0001449026167392
1761238274818011400,4.137011474609375,-0.0473957061767578,-0.0028516575694084,-0.0013557188212871
1761238274836049700,4.155049560546875,-0.0436468124389648,-0.0055712834000587,0.0075898310169577
1761238274854085400,4.17308544921875,-0.045353889465332,-0.0077626630663871,0.0036904653534293
1761238274872127200,4.191127197265625,-0.0467500686645507,-0.0052296817302703,0.0069717299193143
1761238274890165500,4.20916552734375,-0.0458221435546875,-0.0071153864264488,0.0020747296512126
1761238274908205300,4.227205322265625,-0.0474700927734375,-0.0045908242464065,0.0004391847178339
1761238274926243300,4.245243408203125,-0.0499935150146484,-0.0051389336585998,0.0041275145485997
1761238274944282000,4.2632822265625,-0.049239158630371,0.0040663033723831,-0.003092972561717
1761238274962320600,4.281320556640625,-0.0479850769042968,-0.0018466934561729,-0.0002916967496275
1761238274980360200,4.299360107421875,-0.0453596115112304,-0.0092470124363899,-0.0056637013331055
1761238274998398700,4.317398681640625,-0.047398567199707,-0.008173182606697,-0.0018533570691943
1761238275016437500,4.3354375,-0.047708511352539,-0.0005653277039527,0.0034086806699633
1761238275034465000,4.353465087890625,-0.0441808700561523,-0.0083019509911537,0.0004567513242363
1761238275052515600,4.371515625,-0.0442962646484375,-0.0107872039079666,0.00442536175251
1761238275070554000,4.38955419921875,-0.0472393035888671,-0.0081782490015029,0.0052534397691488
1761238275088592600,4.407592529296875,-0.0488224029541015,-0.0063534379005432,0.0071416348218917
1761238275106631200,4.425631103515625,-0.050847053527832,-0.0118298754096031,-0.0041878633201122
1761238275124665600,4.44366552734375,-0.0493679046630859,-0.0067976489663124,0.0020653111860156
1761238275142709000,4.461708984375,-0.0480060577392578,-0.0070533007383346,0.0036452328786253
1761238275160748000,4.479748046875,-0.0518617630004882,-0.0105010047554969,0.0080151883885264
1761238275178786600,4.49778662109375,-0.047734260559082,-0.0084985345602035,0.0045134481042623
1761238275196826000,4.515826171875,-0.044835090637207,-0.0035969913005828,0.0040694242343306
1761238275214864400,4.533864501953125,-0.0502452850341796,-0.0083455368876457,0.0040069036185741
1761238275232903200,4.551903076171875,-0.0510625839233398,-0.0045758113265037,0.0021399660035967
1761238275250941700,4.569941650390625,-0.0505361557006835,-0.0020724833011627,0.0048731518909335
1761238275268981200,4.587981201171875,-0.0411968231201171,-0.0045683532953262,0.0083341877907514
1761238275287019800,4.606019775390625,-0.0431976318359375,-0.0039525106549263,0.005169722251594
1761238275305058300,4.624058349609375,-0.0482130050659179,-0.0051551833748817,0.0005373256281018
1761238275323096800,4.642096923828125,-0.0489721298217773,-0.0093669071793556,-0.0008390313014388
1761238275341136400,4.660136474609375,-0.0490884780883789,-0.0052528530359268,0.0019549392163753
1761238275359163000,4.678162841796875,-0.0502424240112304,-0.0046090856194496,0.0023302510380744
1761238275377213700,4.696213623046875,-0.0463542938232421,-0.0017135217785835,0.0065739853307604
1761238275395252200,4.714252197265625,-0.0475530624389648,-0.004295989871025,0.0049368357285857
1761238275413291800,4.732291748046875,-0.0430231094360351,-0.0076483339071273,0.0001044804230332
1761238275431330000,4.750330078125,-0.0470485687255859,-0.0034443959593772,0.0064054364338517
1761238275449367000,4.768366943359375,-0.0499324798583984,-0.0027077794075012,0.0090877218171954
1761238275467408400,4.786408447265625,-0.0440320968627929,-0.0084592476487159,0.0053031519055366
1761238275485447400,4.804447509765625,-0.0442771911621093,-0.0034888610243797,0.0063722748309373
1761238275503485400,4.8224853515625,-0.0402536392211914,-0.0066374540328979,0.0052417237311601
1761238275521512200,4.84051220703125,-0.0437078475952148,-0.0070317909121513,0.0021422477439045
1761238275539562500,4.8585625,-0.0413064956665039,-0.009920448064804,0.0014987075701355
1761238275557601800,4.876601806640625,-0.0409450531005859,-0.0049640610814094,0.0054504303261637
1761238275575640600,4.894640625,-0.0519380569458007,-0.0040024146437644,0.007633488625288
1761238275593679400,4.912679443359375,-0.049539566040039,-0.005264513194561,0.010382518172264
1761238275611717600,4.930717529296875,-0.0444650650024414,-0.0045984759926795,0.0007490012794733
1761238275629757000,4.9487568359375,-0.0466203689575195,-0.0012659505009651,0.0030745062977075
1761238275647795500,4.96679541015625,-0.0487337112426757,-0.0034437701106071,-0.0001359051093459
1761238275665834500,4.98483447265625,-0.0449914932250976,-0.005279503762722,0.0052901823073625
1761238275683873000,5.002873046875,-0.0455636978149414,-0.0024795681238174,0.0070871086791157
1761238275701912600,5.02091259765625,-0.05377197265625,-0.0049745962023735,0.0062573878094553
1761238275719949800,5.03894970703125,-0.0498161315917968,-0.003676950931549,0.0010583437979221
1761238275737990700,5.05699072265625,-0.048079490661621,-0.0026797130703926,0.0014094775542616
1761238275756025000,5.075025146484375,-0.0518789291381835,0.002298966050148,0.0015857759863138
1761238275774070500,5.093070556640625,-0.0466070175170898,-0.0025349855422973,0.0040996382012963
1761238275792106000,5.11110595703125,-0.0469446182250976,-0.0047113671898841,-0.0007850993424654
1761238275810144500,5.12914453125,-0.048781394958496,-0.0123518034815788,0.0020329318940639
1761238275828183000,5.14718310546875,-0.0513343811035156,-0.0048782080411911,0.0017818128690123
1761238275846223000,5.16522314453125,-0.0435972213745117,-0.0114375725388526,0.000359364785254
1761238275864261400,5.183261474609375,-0.048924446105957,-0.0052179917693138,0.0015910137444734
1761238275882300200,5.201300048828125,-0.0450201034545898,-0.0015118420124053,0.0055850194767117
1761238275900339000,5.2193388671875,-0.0502777099609375,-0.0094402506947517,0.0006848545745015
1761238275918375200,5.237375244140625,-0.0475006103515625,-0.0059854984283447,0.0032998193055391
1761238275936419300,5.25541943359375,-0.045943260192871,-0.0073620676994323,0.0037001380696892
1761238275954449000,5.273448974609375,-0.0486316680908203,-0.0113221779465675,0.0055177323520183
1761238275972496400,5.291496337890625,-0.0501747131347656,-0.0034804418683052,0.0050560375675559
1761238275990532900,5.309532958984375,-0.0463466644287109,-0.002231940627098,0.0018636528402566
1761238276008575700,5.32757568359375,-0.0563287734985351,-0.0115132108330726,0.0056453440338373
1761238276026614500,5.345614501953125,-0.0484170913696289,-0.0017721354961395,-0.0047715650871396
1761238276044649000,5.36364892578125,-0.0431594848632812,-0.0075939819216728,0.0019036848098039
1761238276062688300,5.381688232421875,-0.0441503524780273,-0.0027854964137077,0.002777642570436
1761238276080726800,5.399726806640625,-0.0442981719970703,-0.0017550364136695,-0.0013099489733576
1761238276098765300,5.417765380859375,-0.0483827590942382,-0.007545843720436,0.00211878772825
1761238276116803800,5.435803955078125,-0.0460758209228515,-0.0071806237101554,0.0013625482097268
1761238276134843400,5.453843505859375,-0.0445880889892578,-0.0076447278261184,0.0030199345201253
1761238276152881700,5.471881591796875,-0.0443639755249023,-0.0037382617592811,0.0009147515520453
1761238276170920200,5.489920166015625,-0.0449800491333007,-0.0020427629351615,0.0034704515710473
1761238276188943400,5.507943359375,-0.0473480224609375,-0.0057073310017585,0.0014993632212281
1761238276206998800,5.525998779296875,-0.0447816848754882,-0.0125539600849151,0.0051259435713291
1761238276225037300,5.544037353515625,-0.0443944931030273,-0.0093182399868965,0.007276059128344
1761238276243076000,5.562076171875,-0.0477495193481445,-0.0064071118831634,-0.0021433886140584
1761238276261114000,5.580114013671875,-0.0471200942993164,-0.0011686831712722,-0.002478945069015
1761238276279153400,5.5981533203125,-0.0436115264892578,0.0004987269639968,-0.0007160203531384
1761238276297192000,5.61619189453125,-0.0482797622680664,-0.0052052289247512,0.0017864359542727
1761238276315230700,5.634230712890625,-0.0507736206054687,-0.0058201998472213,0.003755684942007
1761238276333269500,5.65226953125,-0.0493631362915039,-0.0030127763748168,-0.0019017131999135
1761238276351309000,5.67030908203125,-0.0520744323730468,-0.0043249204754829,-0.0027639660984277
1761238276369347000,5.68834716796875,-0.0489130020141601,-0.00252216309309,0.000163403339684
1761238276387382800,5.7063828125,-0.0490837097167968,-0.0110986307263374,-0.0005813706666231
1761238276405428000,5.724427978515625,-0.0468349456787109,-0.0040584877133369,0.0022520143538713
1761238276423461000,5.742461181640625,-0.0411329269409179,-0.0118019729852676,0.0034647425636649
1761238276441505300,5.76050537109375,-0.0461187362670898,-0.0067538544535636,-0.000621729530394
1761238276459541200,5.778541259765625,-0.0486602783203125,-0.0008566677570343,-0.0023098532110452
1761238276477579500,5.79657958984375,-0.0438451766967773,-0.008217841386795,0.0002597542479634
1761238276495618800,5.814618896484375,-0.0424671173095703,-0.0026659071445465,0.0027904696762561
1761238276513657600,5.83265771484375,-0.0498943328857421,-0.0057009160518646,0.0037512825801968
1761238276531696400,5.8506962890625,-0.0503702163696289,-0.0090345591306686,0.0050069019198417
1761238276549735000,5.86873486328125,-0.0423173904418945,-0.002765879034996,0.0051053939387202
1761238276567777500,5.886777587890625,-0.0440225601196289,-0.0076009854674339,0.0011457959190011
1761238276585810000,5.904809814453125,-0.0472049713134765,-0.0010552555322647,-0.0021997718140482
1761238276603854600,5.9228544921875,-0.0488252639770507,0.0014925673604011,0.0032908646389842
1761238276621887200,5.94088720703125,-0.0461444854736328,0.0002459734678268,-0.0036980798467993
1761238276639931400,5.958931396484375,-0.0486631393432617,0.0002474263310432,-0.0004025669768452
1761238276657968400,5.976968505859375,-0.0490436553955078,-0.0068555101752281,-0.0010932786390185
1761238276676000800,5.995000732421875,-0.0461769104003906,-0.0082259401679039,0.0026016216725111
1761238276694031600,6.013031494140625,-0.0446071624755859,-0.0100636109709739,0.0018002707511186
1761238276712084200,6.031084228515625,-0.0455074310302734,-0.0056076794862747,0.0059133721515536
1761238276730123000,6.049123046875,-0.0456418991088867,-0.0069808587431907,0.0042218193411827
1761238276748161500,6.06716162109375,-0.0485868453979492,-0.0129925236105918,0.0005344683304429
1761238276766200300,6.085200439453125,-0.0472450256347656,-0.0062050521373748,0.0040831053629517
1761238276784236800,6.10323681640625,-0.0517520904541015,-0.0043982341885566,0.0063298568129539
1761238276802281200,6.12128125,-0.0506458282470703,0.0016832426190376,0.0047737760469317
1761238276820316400,6.13931640625,-0.0511293411254882,-0.001689925789833,-0.0012398827821016
1761238276838355500,6.15735546875,-0.0464897155761718,-0.0056785717606544,0.0019505573436617
1761238276856391200,6.17539111328125,-0.0487127304077148,-0.0054533705115318,0.0084171667695045
1761238276874429700,6.1934296875,-0.0501861572265625,-0.0049801096320152,0.0022727958858013
1761238276892472000,6.21147216796875,-0.0515470504760742,0.0028361231088638,0.0003808960318565
1761238276910510600,6.229510498046875,-0.0465545654296875,-0.0058388113975524,0.006172752007842
1761238276928549600,6.247549560546875,-0.0435247421264648,0.0003169029951095,0.0034805620089173
1761238276946588200,6.265588134765625,-0.0511894226074218,0.0030355006456375,0.0007326509803533
1761238276964626700,6.283626708984375,-0.0435771942138671,-0.0023801699280738,-0.0035176547244191
1761238276982665700,6.301665771484375,-0.0511980056762695,-0.0055408254265785,0.0029442720115184
1761238277000705000,6.319705078125,-0.0482892990112304,-0.0059608817100524,-0.003247071057558
1761238277018743300,6.337743408203125,-0.055974006652832,0.0051507726311683,0.0012491205707192
1761238277036782300,6.3557822265625,-0.0501489639282226,-0.0014335811138153,0.0009163720533251
1761238277054820900,6.37382080078125,-0.0445585250854492,-0.0016529783606529,0.0079713752493262
1761238277072860000,6.39185986328125,-0.050699234008789,-0.0030619502067565,-0.0006787320598959
1761238277090895600,6.4098955078125,-0.0493526458740234,-0.0055624619126319,0.0047909170389175
1761238277108939300,6.427939208984375,-0.0432987213134765,-0.008254662156105,0.005682754330337
1761238277126975200,6.445975341796875,-0.039459228515625,-0.0056648924946784,0.0043912194669246
1761238277145014800,6.464014892578125,-0.046513557434082,-0.001374714076519,0.0082787768915295
1761238277163040300,6.482040283203125,-0.0428686141967773,-0.0018394961953163,0.001714127138257
1761238277181095200,6.50009521484375,-0.0510892868041992,-0.0120779722929,0.0005252473056316
1761238277199131000,6.518130859375,-0.047133445739746,-0.0055459961295127,0.0023402525112032
1761238277217170200,6.536170166015625,-0.0465364456176757,-0.0024007335305213,0.001258360221982
1761238277235208400,6.55420849609375,-0.048232078552246,0.0023243278264999,0.0017211902886629
1761238277253244400,6.572244384765625,-0.0483274459838867,-0.0012562051415443,0.0046768272295594
1761238277271288800,6.590288818359375,-0.0494794845581054,-0.002890259027481,0.0009505227208137
1761238277289322200,6.608322265625,-0.0509519577026367,-0.0059034749865531,0.001479354687035
1761238277307364000,6.626364013671875,-0.049386978149414,-0.0055499225854873,0.0031817592680454
1761238277325404200,6.644404052734375,-0.0444393157958984,-0.0045454427599906,0.0056703966110944
1761238277343429000,6.66242919921875,-0.0402793884277343,-0.0042302682995796,0.0019887266680598
1761238277361468400,6.680468505859375,-0.0414352416992187,-0.0039571747183799,0.0027235392481088
1761238277379519000,6.69851904296875,-0.0497331619262695,-0.0067912638187408,0.0022602789103984
1761238277397557500,6.7165576171875,0.5236244201660156,-0.0336848720908165,0.0732714086771011
1761238277415596000,6.734595947265625,-0.2270460128784179,-0.0029689446091651,-0.0143801532685756
1761238277433635000,6.752635009765625,-0.2449293136596679,-0.0002651289105415,-0.0224509760737419
1761238277451671300,6.77067138671875,0.0091238021850585,-0.0077068209648132,0.0038685407489538
1761238277469715500,6.788715576171875,-0.1771240234375,0.0003314912319183,-0.0154704917222261
1761238277487739400,6.806739501953125,0.1624660491943359,0.0077941492199897,-0.0151471374556422
1761238277503770400,6.822770263671875,0.1608686447143554,-0.0605605691671371,0.0720821321010589
1761238281760457500,0.19845751953125,-0.0481939315795898,0.0008652806282043,-0.0034417426213622
1761238281778857000,0.21685693359375,-0.040938377380371,-0.0010496228933334,-0.0007787030190229
1761238281797256200,0.235256103515625,-0.0428409576416015,0.0011294409632682,-0.0001026764512062
1761238281815652600,0.253652587890625,-0.0501260757446289,-0.0007548257708549,0.0031151007860898
1761238281833825800,0.27182568359375,-0.0467805862426757,-0.0006346330046653,-0.0033524017781019
1761238281851868400,0.289868408203125,-0.0466318130493164,0.0008332729339599,0.000247785821557
1761238281869906700,0.30790673828125,-0.0438823699951171,0.0062394738197326,-0.0065685780718922
1761238281887945700,0.32594580078125,-0.0470380783081054,0.0027412176132202,-0.0014763111248612
1761238281905984300,0.343984375,-0.0537519454956054,0.0029443949460983,0.0003980677574872
1761238281924023000,0.36202294921875,-0.0455131530761718,-0.0007395222783088,-0.0063950102776288
1761238281942061600,0.3800615234375,-0.0420303344726562,0.0062306001782417,0.0028995834290981
1761238281960100400,0.398100341796875,-0.0450096130371093,-0.0042257010936737,-0.0010688174515962
1761238281978139000,0.416138916015625,-0.0452985763549804,0.0021401941776275,0.000805651769042
1761238281996165600,0.43416552734375,-0.0470409393310546,-0.0029608383774757,-0.0082866623997688
1761238282014216400,0.452216552734375,-0.048257827758789,0.0059400126338005,-0.0007295161485671
1761238282032255200,0.470255126953125,-0.0370006561279296,0.0013062134385108,0.0042525455355644
1761238282050293200,0.488293212890625,-0.0513677597045898,8.9108943939e-06,0.0087967533618211
1761238282068329200,0.5063291015625,-0.047952651977539,0.0044220760464668,0.0030913837254047
1761238282086374000,0.524373779296875,-0.0475139617919921,-0.0017029792070388,-0.0045131752267479
1761238282104409600,0.54240966796875,-0.0496253967285156,-0.004585638642311,-0.0049229627475142
1761238282122448600,0.56044873046875,-0.0535850524902343,0.0009512826800346,0.0015770364552736
1761238282140487200,0.578487060546875,-0.0483684539794921,0.0056504756212234,-0.0057887881994247
1761238282158526200,0.596526123046875,-0.0458507537841796,0.0015473067760467,0.0044954493641853
1761238282176564500,0.614564453125,-0.0438947677612304,0.0027142092585563,-0.003020254895091
1761238282194603300,0.632603271484375,-0.0502262115478515,0.0088808089494705,-0.0034395465627312
1761238282212642000,0.65064208984375,-0.0439920425415039,0.0008273124694824,-0.0028409659862518
1761238282230680600,0.6686806640625,-0.0450668334960937,0.0032142773270606,0.0008295644074678
1761238282248726300,0.686726318359375,-0.0485897064208984,0.0041016116738319,-0.0030582267791032
1761238282266757600,0.704757568359375,-0.0453815460205078,-0.0064503699541091,-0.0013191383332014
1761238282284796200,0.722796142578125,-0.0482950210571289,0.0041321143507957,0.0042052716016769
1761238282302835000,0.7408349609375,-0.0463848114013671,0.00107953697443,-0.001370245590806
1761238282320873200,0.758873291015625,-0.036696434020996,0.0006687566637992,-0.0022429516538977
1761238282338913500,0.77691357421875,-0.0462112426757812,0.0001047030091285,-0.0063216835260391
1761238282356951600,0.79495166015625,-0.0432758331298828,-0.004584290087223,0.005190584808588
1761238282374987800,0.81298779296875,-0.0469961166381835,0.0044800266623497,-0.00226407404989
1761238282393011700,0.83101171875,-0.0508232116699218,0.0028438493609428,0.0016889348626136
1761238282411067000,0.84906689453125,-0.0425434112548828,0.00351332873106,0.0034980960190296
1761238282429104000,0.867104248046875,-0.0463542938232421,-0.0023165792226791,0.0020901020616292
1761238282447147300,0.885147216796875,-0.0490789413452148,-0.0080811604857444,0.0001891460269689
1761238282465183000,0.903182861328125,-0.0504064559936523,0.0011616796255111,0.0040667429566383
1761238282483222000,0.921221923828125,-0.051065444946289,0.0073716789484024,-0.0012138728052377
1761238282501258500,0.939258544921875,-0.046187400817871,0.0086810067296028,-0.0030191391706466
1761238282519299000,0.957299072265625,-0.0586786270141601,-0.0025210231542587,-7.36415386199e-05
1761238282537338000,0.975338134765625,-0.0442409515380859,-0.0037989392876625,-0.0014119185507297
1761238282555373800,0.993373779296875,-0.0472955703735351,-0.0033103302121162,-0.0021431092172861
1761238282573415000,1.011414794921875,-0.0481672286987304,0.0036845877766609,-0.0054217632859945
1761238282591454200,1.0294541015625,-0.0379610061645507,0.0026073232293128,-0.0061024595052003
1761238282609492500,1.047492431640625,-0.0475168228149414,-0.0027780756354331,-0.0008822083473205
1761238282627531300,1.06553125,-0.0510540008544921,-0.006289817392826,0.0004784204065799
1761238282645569800,1.08356982421875,-0.0470142364501953,-0.0002215132117271,0.0023353677242994
1761238282663598600,1.1015986328125,-0.0462045669555664,0.0013356134295463,0.0004607755690813
1761238282681647600,1.119647705078125,-0.0532293319702148,0.0010821521282196,-0.0069605261087417
1761238282699686000,1.137685791015625,-0.051553726196289,0.0085036009550094,-0.006271244958043
1761238282717724400,1.155724365234375,-0.0447912216186523,0.0033363103866577,0.0006648916751146
1761238282735758300,1.17375830078125,-0.0410089492797851,0.0017368197441101,0.0022127758711576
1761238282753801700,1.1918017578125,-0.037515640258789,0.000258944928646,0.0020332466810941
1761238282771840500,1.209840576171875,-0.0460720062255859,0.0016428530216217,-0.0045522134751081
1761238282789879000,1.227879150390625,-0.0529804229736328,0.0024320483207702,-0.0009454116225242
1761238282807918000,1.24591796875,-0.0516204833984375,-0.0032649412751197,-0.0050965975970029
1761238282825956600,1.26395654296875,-0.0553131103515625,-0.0057953968644142,-0.0025597605854272
1761238282843995400,1.281995361328125,-0.0428571701049804,0.0015322566032409,0.0037258844822645
1761238282862034000,1.300033935546875,-0.0498676300048828,0.0076170861721038,-0.0037025241181254
1761238282880072400,1.318072509765625,-0.0414466857910156,-0.0005508512258529,-0.0013310946524143
1761238282898110200,1.336110107421875,-0.0463018417358398,-8.71866941452e-05,-0.0075788218528032
1761238282916151300,1.3541513671875,-0.047825813293457,-0.0026130154728889,0.0045407358556985
1761238282934188300,1.372188232421875,-0.0517559051513671,-0.0027272105216979,0.0036466028541326
1761238282952227000,1.39022705078125,-0.048802375793457,0.0038428083062171,0.0017772559076547
1761238282970265900,1.408265869140625,-0.0473842620849609,0.0031599998474121,0.0048189610242843
1761238282988304600,1.4263046875,-0.0475215911865234,0.0009560957551002,-0.0031678546220064
1761238283006343400,1.444343505859375,-0.0468759536743164,0.0003597661852836,-0.0009007547050714
1761238283024382000,1.4623818359375,-0.038421630859375,0.00342458486557,-0.0004798993468284
1761238283042420700,1.480420654296875,-0.0479373931884765,0.0068653747439384,-0.0006419513374567
1761238283060459300,1.498459228515625,-0.048985481262207,0.0017225816845893,-0.0029429448768496
1761238283078498300,1.516498291015625,-0.0472650527954101,0.0036039352416992,-0.0026806546375155
1761238283096536600,1.53453662109375,-0.0512571334838867,-0.0043800622224807,-0.0026473440229892
1761238283114575000,1.5525751953125,-0.0472259521484375,0.0029301866888999,-0.00079713948071
1761238283132613600,1.570613525390625,-0.0404138565063476,0.0073244050145149,0.0033379085361957
1761238283150652700,1.588652587890625,-0.0474529266357421,-0.0029818043112754,0.0004247855395078
1761238283168675800,1.60667578125,-0.049269676208496,-0.0070381090044975,-0.0002059675753116
1761238283186730200,1.624730224609375,-0.0443630218505859,-0.0004321485757827,-0.0068617053329944
1761238283204768500,1.6427685546875,-0.041574478149414,-0.0089285597205162,0.0053664967417716
1761238283222807300,1.660807373046875,-0.0462865829467773,0.0021862313151359,-0.0020576994866132
1761238283240845600,1.678845458984375,-0.0447044372558593,0.000830553472042,-0.0009234324097633
1761238283258884400,1.69688427734375,-0.0447711944580078,-0.0016783401370048,-0.0079439906403422
1761238283276923400,1.71492333984375,-0.0463285446166992,-0.0060346126556396,-0.0027348436415195
1761238283294962000,1.7329619140625,-0.0446052551269531,0.0035152956843376,-0.0033655818551778
1761238283312991000,1.750990966796875,-0.0446596145629882,0.0066032484173774,0.0017554033547639
1761238283331038000,1.769037841796875,-0.0458488464355468,-0.0029761046171188,-0.0010501109063625
1761238283349079000,1.7870791015625,-0.051955223083496,0.0023950636386871,-0.0053591141477227
1761238283367116500,1.805116455078125,-0.0468635559082031,5.11705875396e-05,-0.000186575576663
1761238283385155000,1.823155029296875,-0.0496206283569335,-0.0010232701897621,3.76608222723e-05
1761238283403193300,1.841193359375,-0.0441007614135742,-0.0011117234826087,-1.48974359035e-05
1761238283421232400,1.859232421875,-0.0456523895263671,0.0036628618836402,-0.0001953169703483
1761238283439271000,1.87727099609375,-0.0475931167602539,-0.0043665617704391,0.0032281335443258
1761238283457310000,1.89531005859375,-0.045516014099121,0.0011189728975296,0.003529705107212
1761238283475348200,1.91334814453125,-0.051239013671875,0.0058109164237976,-0.001646589487791
1761238283493387000,1.931386962890625,-0.050389289855957,-0.0006568878889083,0.0035786647349596
1761238283511425800,1.94942578125,-0.0448818206787109,-0.0068160966038703,-0.0044032633304595
1761238283529464000,1.967464111328125,-0.0466251373291015,-0.0030306354165077,-0.0023947283625602
1761238283547503400,1.98550341796875,-0.0497941970825195,0.0022639706730842,-0.0029244907200336
1761238283565539000,2.0035390625,-0.0449905395507812,-0.0039601176977157,0.0002216510474681
1761238283583578600,2.02157861328125,-0.0465879440307617,-0.0003669038414955,0.0024446118623018
1761238283601618700,2.03961865234375,-0.0481729507446289,-0.0012795403599739,0.0100858453661203
1761238283619657200,2.0576572265625,-0.0517101287841796,0.0006816312670707,0.0061807073652744
1761238283637696300,2.0756962890625,-0.0486660003662109,0.0006520450115203,0.003726627677679
1761238283655735000,2.093735107421875,-0.0406064987182617,0.0015503540635108,0.0021539404988288
1761238283673773300,2.111773193359375,-0.040842056274414,-0.0007907226681709,0.002137653529644
1761238283691811800,2.129811767578125,-0.0477876663208007,-0.004462830722332,0.0016126222908496
1761238283709847800,2.147847900390625,-0.0445127487182617,-0.00074103474617,-0.0004726350307464
1761238283727890400,2.165890380859375,-0.0405797958374023,0.0069825500249862,0.0008879639208316
1761238283745931000,2.183930908203125,-0.0483589172363281,-0.0031619220972061,-0.0013581905514001
1761238283763966700,2.201966796875,-0.0424375534057617,-0.0004541277885437,0.0042817518115043
1761238283782005500,2.220005615234375,-0.0419397354125976,0.0061369910836219,0.0008923057466745
1761238283800043800,2.238043701171875,-0.0506200790405273,-0.0004525333642959,0.0027712378650903
1761238283818082600,2.25608251953125,-0.0420637130737304,-0.0010057613253593,-0.0003585526719689
1761238283836111400,2.274111328125,-0.0423583984375,0.0004820302128791,0.0017779469490051
1761238283854160400,2.292160400390625,-0.05145263671875,0.0020437017083168,0.0042864680290222
1761238283872199000,2.310198974609375,-0.0487842559814453,-0.0012674331665039,0.0050155315548181
1761238283890237200,2.3282373046875,-0.0462293624877929,0.0056274756789207,0.0019501410424709
1761238283908276000,2.34627587890625,-0.0457658767700195,0.0051002725958824,-0.0069609424099326
1761238283926314800,2.364314697265625,-0.053807258605957,-0.0017152950167655,0.0033383388072252
1761238283944353500,2.382353515625,-0.0451164245605468,-0.0051480457186698,-0.0005018319934606
1761238283962391800,2.400391845703125,-0.0435161590576171,0.0023209825158119,0.0045172534883022
1761238283980430600,2.4184306640625,-0.0528545379638671,-0.0041473358869552,0.0055444706231355
1761238283998457300,2.436457275390625,-0.0474023818969726,-0.00022654235363,0.0004106927663087
1761238284016508000,2.4545078125,-0.0483551025390625,-0.0011666342616081,0.0007307045161724
1761238284034546400,2.47254638671875,-0.0474834442138671,0.0025848150253295,0.0008486453443765
1761238284052585000,2.4905849609375,-0.0470409393310546,0.0044627785682678,0.0049481764435768
1761238284070623500,2.50862353515625,-0.0510644912719726,0.0012181103229522,-0.0002984255552291
1761238284088662300,2.526662353515625,-0.0473747253417968,0.0001835525035858,0.0025128684937953
1761238284106701000,2.544701171875,-0.0493488311767578,0.0038622692227363,-0.0031123533844947
1761238284124739600,2.562739501953125,-0.0541610717773437,-0.0016692578792572,-0.0018100664019584
1761238284142778600,2.580778564453125,-0.0400476455688476,-0.0028508901596069,0.0063421837985515
1761238284160817200,2.598817138671875,-0.0537490844726562,-0.0064246207475662,0.0062318807467818
1761238284178856000,2.61685595703125,-0.0421905517578125,-0.0033105388283729,0.0028100479394197
1761238284196894500,2.63489453125,-0.0538711547851562,-0.0042161643505096,0.0012181187048554
1761238284214932200,2.65293212890625,-0.0426054000854492,0.0049261674284935,-0.0014753565192222
1761238284232956400,2.670956298828125,-0.036569595336914,0.0089395344257354,-0.000529303215444
1761238284251009300,2.68900927734375,-0.0434951782226562,0.0025006085634231,0.0036263801157474
1761238284269049600,2.707049560546875,-0.0482568740844726,0.0042159631848335,-0.0047019897028803
1761238284287087000,2.725087158203125,-0.0488805770874023,0.0002158060669898,0.0066698295995593
1761238284305126100,2.743126220703125,-0.045262336730957,-0.0015821456909179,0.0037537282332777
1761238284323165000,2.7611650390625,-0.0479955673217773,0.000106893479824,0.0049521112814545
1761238284341203700,2.77920361328125,-0.0493974685668945,-0.0054350569844245,0.0038581332191824
1761238284359242200,2.7972421875,-0.0441465377807617,-0.0025136396288871,0.0074300244450569
1761238284377282000,2.815281982421875,-0.050262451171875,0.0002451688051223,0.0063124410808086
1761238284395315200,2.833315185546875,-0.0538272857666015,0.0008644238114356,0.0025940611958503
1761238284413361000,2.85136083984375,-0.0463314056396484,-0.0063814967870712,0.0036491425707936
1761238284431396900,2.86939697265625,-0.0460062026977539,-0.0014321506023406,0.0008964808657765
1761238284449435100,2.88743505859375,-0.0459918975830078,0.0007759183645248,0.0064209401607513
1761238284467463400,2.90546337890625,-0.0528860092163085,0.0045138746500015,0.0034284554421901
1761238284485509400,2.92350927734375,-0.0448017120361328,0.0030658692121505,0.0040884213522076
1761238284503551000,2.941551025390625,-0.0496702194213867,-8.63298773765e-05,-0.0004341974854469
1761238284521590000,2.959590087890625,-0.0427112579345703,0.0054307505488395,0.0019576316699385
1761238284539628800,2.97762890625,-0.0497331619262695,-0.0018821880221366,0.0009109964594244
1761238284557667000,2.9956669921875,-0.0520172119140625,-0.0046303793787956,-0.0041976980865001
1761238284575705600,3.01370556640625,-0.0421133041381835,-0.0012447908520698,0.0054547991603612
1761238284593744400,3.031744384765625,-0.0448732376098632,0.0006616041064262,-0.0032917065545916
1761238284611782700,3.04978271484375,-0.0489892959594726,0.0083575695753097,0.0042312256991863
1761238284629821700,3.06782177734375,-0.0450496673583984,0.0014331936836242,0.0030676303431391
1761238284647860500,3.085860595703125,-0.0463943481445312,-0.0025975108146667,0.0020207716152071
1761238284665898800,3.103898681640625,-0.0492935180664062,-0.0062536001205444,0.0020468365401029
1761238284683937800,3.121937744140625,-0.0426340103149414,0.0076369941234588,-0.0065708011388778
1761238284701976300,3.139976318359375,-0.0448436737060546,0.001261256635189,0.0089520290493965
1761238284720014800,3.158014892578125,-0.0517568588256835,-0.0003186389803886,-0.0020490093156695
1761238284738053400,3.176053466796875,-0.059030532836914,0.0025218725204467,0.0029474664479494
1761238284756092000,3.194091796875,-0.0472793579101562,0.0022429004311561,0.0045562265440821
1761238284774130700,3.212130615234375,-0.0470600128173828,-0.0031500682234764,-0.0029566893354058
1761238284792169500,3.23016943359375,-0.0509471893310546,0.0063255056738853,0.0045931171625852
1761238284810208000,3.2482080078125,-0.0505714416503906,-0.0001122951507568,0.0005620121955871
