time,seconds_elapsed,z,y,x
1761235043969228300,0.235228271484375,0.0691965818405151,-0.0879116058349609,-0.0790116637945175
1761235043987262700,0.2532626953125,-0.0061054229736328,-0.0604496002197265,-0.1297834068536758
1761235044005307100,0.27130712890625,-0.027345061302185,-0.004739761352539,-0.0343552380800247
1761235044023346200,0.28934619140625,-0.098945140838623,-0.0957088470458984,-0.0463457927107811
1761235044041382100,0.307382080078125,-0.0466927289962768,-0.1839227676391601,-0.1054203808307647
1761235044059421200,0.325421142578125,0.0075254440307617,-0.1487045288085937,-0.0329689942300319
1761235044077457700,0.343457763671875,0.0191200971603393,-0.129434585571289,-0.046393733471632
1761235044095497000,0.3614970703125,0.094807744026184,-0.077035903930664,-0.0781952440738678
1761235044113533200,0.379533203125,0.0073186159133911,-0.0497398376464843,0.020550612360239
1761235044131560400,0.397560546875,-0.0574314594268798,-0.1695880889892578,-0.0744544491171836
1761235044149608400,0.4156083984375,0.1581584215164184,-0.1702232360839843,-0.222831517457962
1761235044167644700,0.433644775390625,0.3861979246139526,0.0194883346557617,-0.1627281010150909
1761235044185686800,0.451686767578125,0.28714120388031,-0.0255842208862304,-0.045057937502861
1761235044203721000,0.469720947265625,0.1101603507995605,-0.0481805801391601,-0.099881112575531
1761235044221760800,0.4877607421875,0.065079927444458,0.0205011367797851,-0.0134307295083999
1761235044239798000,0.505798095703125,0.2184863090515136,-0.0115556716918945,0.0727254077792167
1761235044257828900,0.523828857421875,0.3768366575241089,-0.1578273773193359,0.0605923011898994
1761235044275873000,0.541873046875,0.4282323122024536,-0.1701936721801757,0.0797759741544723
1761235044293910000,0.559909912109375,0.3754701614379883,-0.0951128005981445,0.1103794425725936
1761235044311948800,0.57794873046875,0.336708664894104,-0.0554676055908203,0.0077192038297653
1761235044329985000,0.595985107421875,0.2393885850906372,-0.0091743469238281,-0.1403419822454452
1761235044348021200,0.614021240234375,0.2369182109832763,-0.0640392303466796,-0.2660991549491882
1761235044366063400,0.6320634765625,0.2361558675765991,-0.0473566055297851,-0.3344959616661072
1761235044384099800,0.650099853515625,0.1055624485015869,0.0754041671752929,-0.2247816920280456
1761235044402135800,0.6681357421875,0.1105415821075439,0.0434217453002929,-0.1589961946010589
1761235044420174600,0.686174560546875,0.197661280632019,-0.0117301940917968,-0.163100466132164
1761235044438211000,0.704211181640625,0.1319183111190796,0.0072660446166992,-0.1136528551578521
1761235044456250600,0.722250732421875,-0.0343961715698242,0.0201597213745117,-0.0426753014326095
1761235044474286300,0.740286376953125,-0.296988844871521,-0.0088911056518554,0.0305232852697372
1761235044492325400,0.758325439453125,-0.4616413116455078,-0.1444740295410156,-0.0625395327806472
1761235044510361600,0.776361572265625,-0.3826256990432739,-0.1264190673828125,-0.0659352838993072
1761235044528400600,0.794400634765625,-0.084362506866455,-0.0500421524047851,0.0543011054396629
1761235044546436900,0.812436767578125,0.0824956893920898,-0.1246795654296875,0.0580926686525344
1761235044564476200,0.83047607421875,-0.0339120626449584,-0.0851984024047851,0.0102202743291854
1761235044582500600,0.84850048828125,0.0199514627456665,-0.1013650894165039,0.0189825817942619
1761235044600552000,0.866552001953125,0.1385257244110107,-0.1305036544799804,-0.0595582872629165
1761235044618587600,0.884587646484375,0.1622099876403808,-0.0954885482788086,-0.1437225937843322
1761235044636626700,0.902626708984375,0.1513111591339111,-0.0918531417846679,-0.1511441171169281
1761235044654662400,0.920662353515625,0.1462239027023315,-0.035867691040039,-0.2062810361385345
1761235044672703200,0.938703125,0.1060813665390014,0.0233974456787109,-0.1605599671602249
1761235044690738000,0.956738037109375,0.0604864358901977,-0.009139060974121,-0.1163944080471992
1761235044708777000,0.97477685546875,0.0513947010040283,-0.0729436874389648,-0.1477953791618347
1761235044726813400,0.9928134765625,0.1045469045639038,0.0328683853149414,-0.0428932011127471
1761235044744852500,1.0108525390625,0.1180076599121093,0.0495662689208984,0.0688973441720008
1761235044762889200,1.02888916015625,-0.0116394758224487,-0.0428953170776367,0.0082611814141273
1761235044780927700,1.046927734375,-0.0801653861999511,-0.0855951309204101,-0.0387137681245803
1761235044798964700,1.06496484375,-0.0258601903915405,0.0561943054199218,-0.1131453365087509
1761235044817003500,1.08300341796875,-0.0115785598754882,0.129648208618164,-0.1377403289079666
1761235044835039700,1.101039794921875,0.0122765302658081,0.0816078186035156,-0.1181569024920463
1761235044853078500,1.11907861328125,-0.0168317556381225,-0.0155544281005859,0.0734600350260734
1761235044871115300,1.137115234375,-0.0001968145370483,-0.0570144653320312,0.0809098929166793
1761235044889150500,1.155150390625,0.038193941116333,-0.2031822204589843,0.1138873174786567
1761235044907190000,1.17318994140625,0.0674378871917724,-0.2045040130615234,0.0631718561053276
1761235044925219000,1.191218994140625,0.035216212272644,-0.1700592041015625,0.0023390091955661
1761235044943253800,1.209253662109375,0.0806643962860107,-0.1625757217407226,-0.1290867626667022
1761235044961304800,1.227304931640625,0.0691002607345581,-0.1065616607666015,-0.1791324764490127
1761235044979340800,1.2453408203125,0.0912443399429321,-0.0968198776245117,-0.117607370018959
1761235044997380000,1.263380126953125,0.1007740497589111,-0.136148452758789,-0.1316525489091873
1761235045015416600,1.28141650390625,0.074022889137268,-0.0980749130249023,-0.0335527919232845
1761235045033452500,1.29945263671875,0.0420418977737426,-0.0892724990844726,-0.0090023484081029
1761235045051476000,1.31747607421875,0.0673153400421142,-0.093729019165039,0.0227798223495483
1761235045069530000,1.335530029296875,0.1513537168502807,-0.1280412673950195,-0.0303793810307979
1761235045087567600,1.353567626953125,0.1207184791564941,-0.0054588317871093,-0.1127173602581024
1761235045105594600,1.3715947265625,-0.0683947801589965,0.1380615234375,-0.1316609382629394
1761235045123642400,1.389642333984375,-0.0877705812454223,0.0554981231689453,0.0287731774151325
1761235045141681200,1.40768115234375,0.1914719343185424,-0.0625810623168945,0.0254975967109203
1761235045159718000,1.4257177734375,0.2395912408828735,-0.1186790466308593,-0.0227548405528068
1761235045177756400,1.44375634765625,0.1593232154846191,-0.0629377365112304,-0.0509105212986469
1761235045195792600,1.461792724609375,0.0698087215423584,-0.024148941040039,-0.0726239383220672
1761235045213831700,1.479831787109375,0.032954454421997,-0.0595951080322265,-0.0943308621644973
1761235045231868400,1.497868408203125,0.0563536882400512,-0.0387763977050781,0.004981780424714
1761235045249907200,1.5159072265625,0.08338463306427,-0.0797080993652343,0.0041874218732118
1761235045267940000,1.533940185546875,0.0781028270721435,-0.1054468154907226,0.0249518230557441
1761235045285985300,1.5519853515625,0.1238110065460205,-0.1304168701171875,-0.0391617342829704
1761235045304019200,1.570019287109375,0.0845727920532226,-0.0983076095581054,-0.1409677267074585
1761235045322058200,1.588058349609375,0.0610387325286865,0.0002985000610351,-0.1360724121332168
1761235045340089900,1.60608984375,0.0266408920288085,-0.0732917785644531,-0.125574454665184
1761235045358134300,1.62413427734375,0.0113468170166015,-0.1408405303955078,-0.0836590677499771
1761235045376172300,1.64217236328125,0.0560858249664306,-0.1441287994384765,-0.144034281373024
1761235045394208500,1.66020849609375,0.0088343620300292,-0.0208978652954101,-0.1818528324365615
1761235045412244500,1.678244384765625,0.0219417810440063,0.0833063125610351,-0.1338417381048202
1761235045430283500,1.696283447265625,0.1713625192642212,0.0442514419555664,-0.0389271154999733
1761235045448320000,1.714320068359375,0.2552708387374878,-0.039031982421875,-0.0307088382542133
1761235045466359300,1.732359375,0.1506145000457763,-0.1284875869750976,-0.1121900528669357
1761235045484395300,1.750395263671875,0.1544864177703857,-0.1378812789916992,-0.1335919201374054
1761235045502424300,1.76842431640625,0.1529759168624878,-0.0757522583007812,-0.1261901706457138
1761235045520473900,1.786473876953125,0.1273497343063354,-0.0888833999633789,-0.0814013555645942
1761235045538509800,1.804509765625,0.0468257665634155,-0.1247224807739257,-0.1051502451300621
1761235045556545800,1.8225458984375,0.0590146780014038,-0.0652933120727539,-0.1028824746608734
1761235045574584600,1.84058447265625,0.1191757917404174,-0.0637292861938476,-0.0666867196559906
1761235045592611000,1.858611083984375,0.1111093759536743,-0.1021184921264648,-0.0610954873263835
1761235045610655500,1.876655517578125,0.105252981185913,-0.0327301025390625,-0.0141915902495384
1761235045628696300,1.8946962890625,0.0562635660171508,-0.0609350204467773,0.0193191207945346
1761235045646736400,1.912736328125,-0.012131929397583,-0.087712287902832,-0.0682673752307891
1761235045664770300,1.930770263671875,0.05523681640625,-0.0866107940673828,-0.1086645126342773
1761235045682812400,1.9488125,0.0643115043640136,-0.066380500793457,-0.106418564915657
1761235045700844000,1.966843994140625,0.1319746971130371,-0.0254755020141601,-0.0757177919149398
1761235045718889000,1.984888916015625,0.0824877023696899,0.0100126266479492,-0.0319762527942657
1761235045736923000,2.0029228515625,0.0011227130889892,-0.0348157882690429,0.0321602560579776
1761235045754962000,2.0209619140625,0.0615105628967285,-0.0894174575805664,0.0118489265441894
1761235045772992500,2.038992431640625,0.1121050119400024,-0.0641136169433593,-0.0360455363988876
1761235045791037000,2.057036865234375,0.1623234748840332,-0.0093507766723632,-0.0917370095849037
1761235045809073400,2.075073486328125,0.1699419021606445,-0.0791473388671875,-0.0225960537791252
1761235045827112400,2.093112548828125,0.0924462080001831,-0.1312217712402343,-0.0632697120308876
1761235045845148700,2.111148681640625,0.0666642189025878,-0.0822429656982421,-0.0714714080095291
1761235045863187200,2.129187255859375,0.077484130859375,0.0037193298339843,-0.0803127214312553
1761235045881223700,2.1472236328125,0.1163185834884643,-0.0358085632324218,-0.0536268204450607
1761235045899258600,2.165258544921875,0.0968590974807739,0.0010232925415039,-0.0478584393858909
1761235045917299000,2.183298828125,0.0768231153488159,-0.0581741333007812,-0.0162088871002197
1761235045935338000,2.201337890625,0.0805011987686157,-0.1204824447631836,-0.0307088270783424
1761235045953374500,2.21937451171875,0.1036040782928466,-0.1523971557617187,-0.0344029180705547
1761235045971402500,2.237402587890625,0.1339150667190551,-0.1317195892333984,-0.0761245265603065
1761235045989449200,2.25544921875,0.1071922779083252,-0.0794849395751953,-0.1170287430286407
1761235046007488000,2.273488037109375,0.0424368381500244,-0.0843000411987304,-0.1365764588117599
1761235046025525500,2.291525390625,0.0500054359436035,-0.1175489425659179,-0.0900886803865432
1761235046043564000,2.30956396484375,0.0961275100708007,-0.0799922943115234,-0.0941712260246276
1761235046061600000,2.32760009765625,0.0683867931365966,-0.0032014846801757,-0.0181525312364101
1761235046079639000,2.34563916015625,0.0671224594116211,-0.034311294555664,0.0207677632570266
1761235046097675800,2.36367578125,0.0872280597686767,-0.1079044342041015,-0.0027604475617408
1761235046115714800,2.38171484375,-0.0040723085403442,0.0083332061767578,-0.0398915484547615
1761235046133750800,2.399750732421875,0.0119245052337646,0.0780935287475586,-0.0061958506703376
1761235046151789800,2.417789794921875,0.0925652980804443,-0.0900020599365234,-0.0228301547467708
1761235046169823700,2.43582373046875,0.0766060352325439,-0.1137056350708007,-0.023390308022499
1761235046187868000,2.453867919921875,0.1043229103088378,-0.0816574096679687,-0.0281780958175659
1761235046205901300,2.4719013671875,0.0535774230957031,-0.060063362121582,-0.0823354870080947
1761235046223940400,2.4899404296875,0.0690302848815918,-0.0301361083984375,-0.1023932993412017
1761235046241976800,2.507976806640625,0.0941238403320312,-0.0718679428100586,-0.0879222452640533
1761235046260015600,2.526015625,0.0979264974594116,-0.0584926605224609,-0.1056300103664398
1761235046278038800,2.544038818359375,0.1063699722290039,-0.0845060348510742,-0.0569673627614975
1761235046296094000,2.562093994140625,0.0726478099822998,-0.0895729064941406,-0.0462336726486682
1761235046314128000,2.5801279296875,0.0371427536010742,-0.0674657821655273,-0.0258968248963356
1761235046332166700,2.598166748046875,0.0346487760543823,0.0266599655151367,-0.0181753113865852
1761235046350202400,2.616202392578125,0.0370621681213378,-0.074951171875,-0.0004183687269687
1761235046368241400,2.634241455078125,0.0552864074707031,-0.1412820816040039,-0.0316884033381938
1761235046386278400,2.6522783203125,0.0877009630203247,-0.0472497940063476,-0.0200495980679988
1761235046404317200,2.670317138671875,0.1129809617996215,-0.0514745712280273,-0.0255618691444396
1761235046422353200,2.688353271484375,0.1015138626098632,-0.0783882141113281,-0.047547347843647
1761235046440379400,2.70637939453125,0.0971966981887817,-0.0479373931884765,-0.0597820989787578
1761235046458428700,2.7244287109375,0.1161795854568481,-0.0450687408447265,-0.0485953465104103
1761235046476468000,2.742468017578125,0.1054995059967041,-0.1291894912719726,-0.0954654812812805
1761235046494504000,2.76050390625,0.119611382484436,-0.0759115219116211,-0.1247373819351196
1761235046512531500,2.778531494140625,0.1164149045944213,-0.0182218551635742,-0.0654176399111747
1761235046530579200,2.7965791015625,0.035921573638916,-0.0483322143554687,-0.0421997010707855
1761235046548618000,2.814617919921875,0.0744074583053588,-0.0836715698242187,-0.0053453519940376
1761235046566654500,2.832654541015625,0.1155157089233398,-0.1227397918701171,-0.006339706480503
1761235046584692500,2.8506923828125,0.0830585956573486,-0.1069021224975586,-0.1030450165271759
1761235046602731000,2.86873095703125,0.0138354301452636,0.0236682891845703,-0.1255943477153778
1761235046620769000,2.88676904296875,0.013279914855957,-0.042515754699707,-0.0186782963573932
1761235046638805200,2.90480517578125,0.0822649002075195,-0.1466016769409179,-0.0138402469456195
1761235046656844000,2.922843994140625,0.1406071186065673,-0.1350679397583007,0.0447530969977378
1761235046674880800,2.940880859375,0.1623172760009765,-0.0846395492553711,-0.0229991413652896
1761235046692919600,2.95891943359375,0.096095323562622,-0.0623359680175781,-0.0976828634738922
1761235046710955300,2.976955322265625,0.0426928997039794,-0.0420465469360351,-0.084076277911663
1761235046728994300,2.994994384765625,0.0831018686294555,-0.0734634399414062,-0.1419206261634826
1761235046747030800,3.01303076171875,0.0990413427352905,-0.0399150848388671,-0.1253738105297088
1761235046765070000,3.031070068359375,0.10486900806427,-0.0199003219604492,-0.050644963979721
1761235046783106300,3.049106201171875,0.0958402156829834,-0.1065559387207031,-0.0115871913731098
1761235046801145000,3.06714501953125,0.1153831481933593,-0.1014184951782226,0.0142703615128993
1761235046819177700,3.085177734375,0.0869766473770141,0.0316295623779296,-0.0221967287361621
1761235046837220600,3.103220703125,0.0628681182861328,0.0123844146728515,-0.0077008232474327
1761235046855256800,3.1212568359375,0.0411252975463867,-0.0777053833007812,-0.1243315637111663
1761235046873295600,3.139295654296875,0.0681822299957275,-0.0784864425659179,-0.0955127030611038
1761235046891330300,3.157330322265625,0.0686079263687133,-0.1049509048461914,-0.0736002624034881
1761235046909371000,3.175370849609375,0.0552783012390136,-0.1264219284057617,-0.0942113474011421
1761235046927407000,3.193406982421875,0.1086541414260864,-0.0682630538940429,-0.0633507519960403
1761235046945434400,3.211434326171875,0.1290501356124878,0.0084037780761718,-0.0543710812926292
1761235046963482600,3.229482666015625,0.0885385274887085,-0.0226058959960937,-0.0641692802309989
1761235046981522000,3.24752197265625,0.0203394889831542,-0.051955223083496,-0.0573581457138061
1761235046999558100,3.26555810546875,-0.0238314867019653,-0.0507755279541015,-0.0445879325270652
1761235047017596700,3.2835966796875,0.0419937372207641,-0.0552549362182617,-0.0282322242856025
1761235047035631600,3.301631591796875,0.0795692205429077,-0.0448083877563476,-0.0293768867850303
1761235047053674500,3.319674560546875,0.0884335041046142,-0.030165672302246,-0.0240352600812912
1761235047071708400,3.33770849609375,0.046655535697937,-0.069493293762207,-0.0521660819649696
1761235047089738000,3.355738037109375,0.0288927555084228,-0.0732507705688476,-0.1309702396392822
1761235047107768800,3.373768798828125,0.0340162515640258,-0.0920963287353515,-0.0561914145946502
1761235047125823000,3.391822998046875,0.0934417247772216,-0.0696020126342773,-0.1282452344894409
1761235047143859200,3.409859130859375,0.0950230360031127,-0.0563116073608398,-0.0287183076143264
1761235047161898200,3.427898193359375,0.1029880046844482,-0.0566015243530273,0.004156157374382
1761235047179934500,3.4459345703125,0.1040860414505004,-0.0599431991577148,-0.0499200224876403
1761235047197973500,3.463973388671875,0.0608400106430053,-0.0503339767456054,-0.0374423563480377
1761235047216009200,3.48200927734375,-0.0035037994384765,-0.0227670669555664,-0.0783785432577133
1761235047234048500,3.500048583984375,0.062538743019104,0.051727294921875,-0.0812077894806861
1761235047252085000,3.5180849609375,0.1357243061065673,-0.0582427978515625,-0.0262005999684333
1761235047270123800,3.536123779296875,0.1117821931838989,-0.1690788269042968,-0.0277165174484252
1761235047288157200,3.5541572265625,0.1014685630798339,-0.1597604751586914,-0.0275703445076942
1761235047306202400,3.572202392578125,0.0428735017776489,-0.0955276489257812,-0.0959961041808128
1761235047324235800,3.59023583984375,0.0060950517654418,-0.0410070419311523,-0.1919082701206207
1761235047342271500,3.608271484375,0.0838749408721923,-0.0264263153076171,-0.1526447385549545
1761235047360313900,3.62631396484375,0.1018428802490234,-0.0681715011596679,-0.1081516668200492
1761235047378349800,3.644349853515625,0.158255934715271,-0.0711965560913086,0.0040828585624694
1761235047396386000,3.662385986328125,0.155269980430603,-0.0870504379272461,0.0162973254919052
1761235047414425000,3.680425048828125,0.07179856300354,-0.0613603591918945,-0.0059191212058067
1761235047432446500,3.698446533203125,0.0022512674331665,-0.0766553878784179,-0.0176297947764396
1761235047450500600,3.71650048828125,0.093085765838623,-0.0883255004882812,-0.1362643539905548
1761235047468536600,3.73453662109375,0.1623412370681762,-0.0975341796875,-0.0838227942585945
1761235047486575900,3.752575927734375,0.0933635234832763,-0.0765752792358398,-0.0845268294215202
1761235047504609300,3.770609375,0.0581403970718383,-0.0480918884277343,-0.0765196457505226
1761235047522643200,3.788643310546875,0.056206464767456,-0.0656108856201171,-0.1098839491605758
1761235047540687400,3.806687255859375,0.0725406408309936,-0.0347814559936523,-0.1296261101961136
1761235047558726100,3.82472607421875,0.0921393632888794,-0.0462102890014648,-0.0640952438116073
1761235047576762000,3.84276220703125,0.0847958326339721,-0.0784788131713867,-0.0686272382736206
1761235047594801400,3.860801513671875,0.1034973859786987,-0.0431776046752929,-0.0606146156787872
1761235047612835600,3.878835693359375,0.0511271953582763,-0.052678108215332,-0.0070649534463882
1761235047630877000,3.896876953125,0.0624914169311523,-0.1344022750854492,-0.0202240943908691
1761235047648913200,3.9149130859375,0.0926405191421508,-0.0587348937988281,-0.0408168286085128
1761235047666952200,3.9329521484375,0.1097187995910644,-0.0337438583374023,0.0183446705341339
1761235047684987400,3.9509873046875,0.0499345064163208,-0.0712308883666992,-0.0414706021547317
1761235047703028700,3.96902880859375,0.0487831830978393,-0.0282621383666992,-0.0868061929941177
1761235047721064000,3.98706396484375,0.0863261222839355,-0.013218879699707,-0.0054904371500015
1761235047739103000,4.00510302734375,0.0828381776809692,-0.057539939880371,-0.0212650895118713
1761235047757139200,4.02313916015625,0.1032953262329101,-0.0912427902221679,-0.0097460001707077
1761235047775173600,4.041173583984375,0.1156361103057861,-0.0361394882202148,-0.0298269540071487
1761235047793214500,4.05921435546875,0.0217037200927734,-0.0415468215942382,-0.0981878191232681
1761235047811249200,4.077249267578125,0.0637457370758056,-0.0810327529907226,-0.1057626157999038
1761235047829285600,4.09528564453125,0.1260346174240112,-0.0793008804321289,-0.0996300131082534
1761235047847328800,4.113328857421875,0.0307216644287109,-0.0482988357543945,-0.0829094350337982
1761235047865364700,4.13136474609375,-0.0074692964553833,-0.0455513000488281,-0.0554599910974502
1761235047883404000,4.149404052734375,0.0990315675735473,-0.0870895385742187,-0.0502090454101562
1761235047901440300,4.167440185546875,0.1231963634490966,-0.05853271484375,-0.069623664021492
1761235047919479300,4.185479248046875,0.0362998247146606,-0.0440359115600585,-0.0204194635152816
1761235047937515500,4.203515625,0.0135406255722045,-0.0592470169067382,-0.0273449420928955
1761235047955554300,4.22155419921875,0.0916162729263305,-0.0190401077270507,0.0029165297746658
1761235047973590800,4.2395908203125,0.1050996780395507,-0.039534568786621,-0.0158759504556655
1761235047991629800,4.2576298828125,0.0643367767333984,-0.0575313568115234,-0.0632238984107971
1761235048009662200,4.275662109375,0.0516039133071899,-0.0724201202392578,-0.0453883856534957
1761235048027703800,4.293703857421875,0.0535050630569458,-0.0759162902832031,-0.0986950546503067
1761235048045741300,4.3117412109375,0.0394395589828491,-0.1006803512573242,-0.1149606704711914
1761235048063780000,4.329780029296875,0.0901832580566406,-0.0701141357421875,-0.0826656520366668
1761235048081816300,4.34781640625,0.076909065246582,-0.0875873565673828,-0.0593509972095489
1761235048099855600,4.365855712890625,0.0853875875473022,-0.1073150634765625,-0.1000797152519226
1761235048117890600,4.383890625,0.0595395565032959,-0.0131111145019531,-0.1119885146617889
1761235048135932400,4.401932373046875,-0.0292189121246337,0.0300636291503906,-0.0300284177064895
1761235048153968400,4.419968505859375,0.0005087852478027,-0.051396369934082,-0.0306216031312942
1761235048172001500,4.43800146484375,0.1494612693786621,-0.1018733978271484,0.001205950975418
1761235048190045700,4.456045654296875,0.0889261960983276,-0.0212011337280273,0.0257029831409454
1761235048208078800,4.474078857421875,0.0093611478805542,-0.0661458969116211,-0.0213702321052551
1761235048226120000,4.492119873046875,0.1286090612411499,-0.1515893936157226,-0.0995621979236602
1761235048244156400,4.510156494140625,0.1588422060012817,-0.1515541076660156,-0.107628121972084
1761235048262193200,4.528193115234375,0.011208176612854,-0.0567312240600585,-0.1314283013343811
1761235048280220700,4.546220703125,0.037152886390686,-0.0505733489990234,-0.1030524522066116
1761235048298268200,4.56426806640625,0.1363060474395752,-0.0836544036865234,-0.0981945246458053
1761235048316307500,4.582307373046875,0.0595171451568603,-0.044321060180664,-0.0835666805505752
1761235048334343700,4.60034375,0.0134087800979614,0.0095958709716796,-0.0454546213150024
1761235048352382500,4.618382568359375,0.0551363229751586,-0.0229387283325195,-0.0654593408107757
1761235048370418700,4.636418701171875,0.0645159482955932,-0.0412845611572265,-0.0630485415458679
1761235048388457500,4.65445751953125,0.0666229724884033,-0.0453310012817382,-0.0044501721858978
1761235048406494200,4.672494140625,0.0274070501327514,-0.0204200744628906,0.0006258487701416
1761235048424533200,4.690533203125,-0.0015555620193481,-0.0306682586669921,0.0451332330703735
1761235048442558000,4.708557861328125,0.1002274751663208,-0.0536880493164062,-0.0325734317302703
1761235048460608300,4.726608154296875,0.1645674705505371,-0.0896434783935546,-0.0845869183540344
1761235048478645000,4.74464501953125,0.1244839429855346,-0.0361032485961914,-0.1442714482545852
1761235048496683800,4.762683837890625,0.1013007164001464,-0.011540412902832,-0.1362182348966598
1761235048514719000,4.780718994140625,0.0970183610916137,-0.0722484588623046,-0.1247469931840896
1761235048532759600,4.798759521484375,0.1728557348251342,-0.1518821716308593,-0.0814521461725235
1761235048550795000,4.816794921875,0.1943954229354858,-0.1147003173828125,-0.0265205577015876
1761235048568834300,4.834834228515625,0.0725150108337402,-0.0603904724121093,-0.0398620963096618
1761235048586870500,4.85287060546875,0.073388934135437,-0.0822114944458007,-0.0341556221246719
1761235048604909600,4.87090966796875,0.1103204488754272,-0.0963478088378906,-0.0678331553936004
1761235048622945800,4.88894580078125,0.0461798906326293,-0.0505046844482421,-0.0455796420574188
1761235048640985000,4.906985107421875,0.0260151624679565,-0.0237655639648437,-0.046231709420681
1761235048659018000,4.92501806640625,0.0162477493286132,-0.005624771118164,-0.0834704488515853
1761235048677059800,4.943059814453125,-0.0272437334060668,0.0482969284057617,-0.0433935448527336
1761235048695099400,4.961099365234375,-0.040865421295166,-0.031036376953125,0.0067116394639015
1761235048713135600,4.979135498046875,-0.0019530057907104,-0.1018695831298828,-0.0324393361806869
1761235048731171000,4.997171142578125,0.0145790576934814,-0.0112390518188476,-0.0380233451724052
1761235048749206800,5.015206787109375,-0.047805905342102,0.031407356262207,-0.0137079805135726
1761235048767246000,5.03324609375,-0.035337209701538,-0.0254983901977539,-0.0486482009291648
1761235048785287200,5.051287109375,-0.0211557149887084,-0.1061239242553711,-0.0262878686189651
1761235048803322000,5.069322021484375,0.0535249710083007,-0.0762653350830078,-0.0478784665465354
1761235048821361200,5.087361083984375,0.0709016323089599,-0.0313749313354492,-0.0649822056293487
1761235048839390000,5.105389892578125,0.0742819309234619,-0.1023330688476562,-0.0474478378891944
1761235048857439700,5.123439697265625,0.0649585723876953,-0.1842947006225586,-0.0626315623521804
1761235048875472600,5.14147265625,0.0307260751724243,-0.0932884216308593,-0.0373775474727153
1761235048893500000,5.1595,0.0205612182617187,0.0183877944946289,-0.0216165222227573
1761235048911547600,5.177547607421875,0.076567530632019,-0.0389375686645507,-0.1358126699924469
1761235048929587000,5.1955869140625,-0.030932068824768,-0.0526456832885742,-0.162619948387146
1761235048947612200,5.213612060546875,-0.1629887819290161,0.032083511352539,-0.0840857774019241
1761235048965662200,5.231662109375,-0.0815507173538208,-0.0063533782958984,-0.0426790788769722
1761235048983698700,5.24969873046875,0.087898850440979,-0.0823450088500976,0.0110654700547456
1761235049001737700,5.26773779296875,0.1540497541427612,-0.0751810073852539,0.0278826914727687
1761235049019773200,5.285773193359375,0.0927239656448364,-0.0319395065307617,-0.0316006168723106
1761235049037812500,5.3038125,-0.0411998033523559,-0.0488252639770507,-0.0338976457715034
1761235049055849200,5.32184912109375,-0.0186153650283813,-0.1045713424682617,-0.0862922742962837
1761235049073888000,5.339887939453125,0.1145747900009155,-0.0958147048950195,-0.0482792854309082
1761235049091923700,5.357923828125,0.2156305313110351,-0.0387563705444335,-0.0270599517971277
1761235049109963000,5.375962890625,0.1892318725585937,-0.0517101287841796,-0.0719762444496154
1761235049127996700,5.39399658203125,0.0930248498916626,-0.0706434249877929,-0.1117085367441177
1761235049146041600,5.41204150390625,0.0837147235870361,-0.1043310165405273,-0.0777158290147781
1761235049164074800,5.43007470703125,0.1236460208892822,-0.1495656967163086,-0.0454472042620182
1761235049182113300,5.44811328125,0.2420923709869384,-0.1287918090820312,-0.0083659533411264
1761235049200150300,5.466150390625,0.1310675144195556,-0.0834083557128906,-0.0483357608318328
1761235049218188800,5.484188720703125,-0.0467830896377563,-0.0095586776733398,-0.1165462732315063
1761235049236225300,5.502225341796875,0.0464754104614257,-0.0594844818115234,-0.0941029265522956
1761235049254264000,5.52026416015625,0.1768859624862671,-0.180999755859375,-0.1254103630781173
1761235049272300500,5.538300537109375,0.043378472328186,-0.0832290649414062,-0.0483223609626293
1761235049290339600,5.556339599609375,-0.0526227951049804,-0.027043342590332,0.0779897198081016
1761235049308375300,5.574375244140625,0.0128724575042724,-0.0794305801391601,-0.0031769627239555
1761235049326414600,5.59241455078125,0.0968317985534668,-0.0409145355224609,-0.0119248181581497
1761235049344449000,5.610448974609375,0.0565611124038696,-0.0338506698608398,-0.0422067381441593
1761235049362487300,5.6284873046875,0.0630038976669311,-0.0104427337646484,-0.0541789643466472
1761235049380525800,5.64652587890625,0.1003609895706176,0.0256433486938476,0.0025872346013784
1761235049398562000,5.66456201171875,0.0392606258392334,-0.0162925720214843,-0.0992454066872596
1761235049416604400,5.6826044921875,0.0706490278244018,-0.0878753662109375,-0.0921141132712364
1761235049434640000,5.700639892578125,0.0655233860015869,-0.1299562454223632,-0.1344027072191238
1761235049452666000,5.718666015625,0.0347266197204589,-0.1414108276367187,0.0150691475719213
1761235049470715600,5.736715576171875,0.0279856920242309,-0.1220388412475586,0.0013340342557057
1761235049488749300,5.754749267578125,0.0487693548202514,-0.1032915115356445,-0.0238050185143947
1761235049506791700,5.772791748046875,0.0719772577285766,-0.070840835571289,-0.0276635978370904
1761235049524830000,5.790829833984375,0.1043124198913574,-0.0588626861572265,-0.011139340698719
1761235049542865200,5.808865234375,0.062097430229187,-0.0765142440795898,-0.0462731122970581
1761235049560903400,5.8269033203125,0.0324404239654541,-0.0461053848266601,-0.05720816552639
1761235049578932200,5.84493212890625,0.0069129467010498,-0.0003824234008789,-0.0305042136460542
1761235049596977700,5.862977783203125,0.0067836046218872,-0.01715087890625,-0.0286394972354173
1761235049615016700,5.8810166015625,0.030672550201416,-0.0625905990600586,-0.0357040017843246
1761235049633053700,5.8990537109375,0.0557245016098022,-0.0690078735351562,-0.0448902025818824
1761235049651092500,5.917092529296875,-0.0600676536560058,-0.0073709487915039,-0.2445724010467529
1761235049669124400,5.935124267578125,-0.0871298313140869,-0.1372947692871093,-0.0929605662822723
1761235049687167000,5.9531669921875,0.1575512886047363,-0.0390176773071289,0.0401903763413429
1761235049705204000,5.971203857421875,0.3539769649505615,0.0391960144042968,0.1369961202144622
1761235049723242800,5.98924267578125,0.1991744041442871,-0.0365829467773437,0.1071287766098976
1761235049741279200,6.007279296875,0.0672683715820312,-0.1872148513793945,0.0260857641696929
1761235049759318000,6.025318115234375,0.1769659519195556,0.0473365783691406,0.0669248178601265
1761235049777338000,6.043338134765625,0.2851201295852661,-0.0316600799560546,0.1196269243955612
1761235049795393500,6.0613935546875,0.2458759546279907,-0.0951347351074218,-0.2126085758209228
1761235049813429200,6.07942919921875,0.0346945524215698,-0.1494035720825195,-0.2256191968917846
1761235049831468000,6.097468017578125,-0.0286927223205566,-0.0836896896362304,-0.0551413185894489
1761235049849504500,6.11550439453125,0.0109336376190185,-0.0493154525756835,-0.0625350624322891
1761235049867543600,6.13354345703125,0.1161184310913086,-0.0875320434570312,-0.0068487897515296
1761235049885579500,6.15157958984375,0.1076413393020629,-0.0886564254760742,0.0057965293526649
1761235049903618800,6.169618896484375,-0.0336772203445434,-0.0210599899291992,-0.009723387658596
1761235049921655300,6.1876552734375,0.1217525005340576,-0.0687417984008789,-0.0384261459112167
1761235049939694000,6.205694091796875,0.1371501684188842,-0.1129989624023437,-0.1067667007446289
1761235049957730000,6.22372998046875,0.0603138208389282,-0.0313539505004882,-0.098107598721981
1761235049975769600,6.24176953125,0.0658481121063232,-0.0177898406982421,-0.0531635135412216
1761235049993805800,6.259805908203125,0.0710740089416503,0.028717041015625,-0.1028084531426429
1761235050011841800,6.277841796875,0.0607434511184692,0.01470947265625,0.0332169458270072
1761235050029883600,6.295883544921875,0.0648336410522461,-0.1435003280639648,-0.0437246859073638
1761235050047919400,6.31391943359375,0.0930891036987304,-0.2209510803222656,-0.0279788449406623
1761235050065956400,6.331956298828125,0.0408689975738525,-0.1072578430175781,-0.0918262153863906
1761235050083995100,6.3499951171875,-0.0822415351867675,-0.1358165740966797,-0.3191545009613037
1761235050102031400,6.36803125,-0.049615740776062,-0.0577602386474609,-0.1592113375663757
1761235050120070700,6.386070556640625,0.3231757879257202,0.0440168380737304,0.0855201333761215
1761235050138103800,6.404103759765625,0.3898396492004394,-0.0806055068969726,0.1223229765892028
1761235050156149000,6.42214892578125,-0.0952327251434326,-0.0510435104370117,0.0150917991995811
1761235050174178800,6.4401787109375,-0.1544457674026489,0.0033626556396484,0.0729223117232322
1761235050192224000,6.45822412109375,-0.1598395109176635,-0.0200843811035156,0.1255697906017303
1761235050210257400,6.47625732421875,0.3236265182495117,-0.0668935775756836,0.1808851957321167
1761235078783923500,0.14792333984375,0.0358432754874229,-0.0412960052490234,-0.0153619199991226
1761235078802136600,0.166136474609375,0.0830985009670257,-0.1106529235839843,-0.0264175981283187
1761235078820185900,0.184185791015625,0.0241081230342388,-0.0779294967651367,0.0894833356142044
1761235078838226000,0.202225830078125,-0.0198369212448596,-0.0456695556640625,-0.0264569818973541
1761235078856261000,0.22026123046875,0.0439438372850418,-0.0768470764160156,-0.0146026909351348
1761235078874298600,0.238298583984375,0.0668208450078964,-0.0793676376342773,-0.0494511425495147
1761235078892335900,0.2563359375,0.0243270955979824,-0.0862970352172851,-0.0618540495634079
1761235078910370000,0.2743701171875,-0.0077565480023622,-0.0316934585571289,0.0332944244146347
1761235078953201400,0.317201416015625,0.0669543296098709,-0.0797929763793945,-0.028973177075386
1761235078971249000,0.335248779296875,0.033567901700735,-0.0476093292236328,-0.0341870784759521
1761235078989283300,0.353283447265625,0.1014169082045555,-0.0463495254516601,0.0279617607593536
1761235079007324400,0.371324462890625,0.1376364380121231,0.032027244567871,0.0160204172134399
1761235079025362400,0.389362548828125,0.1147099584341049,0.0157909393310546,-0.0447446554899215
1761235079043399700,0.407399658203125,0.0752251595258712,-0.0478391647338867,-0.0535417050123214
1761235079061437700,0.425437744140625,0.0031245164573192,-0.0263853073120117,-0.0979207456111908
1761235079079475000,0.443474853515625,-0.0497912429273128,0.0338726043701171,-0.0547481179237365
1761235079097513000,0.461512939453125,-0.0970865935087204,0.0164194107055664,-0.0830768197774887
1761235079115538200,0.4795380859375,-0.0445852652192115,-0.1341800689697265,-0.0957043468952179
1761235079133588000,0.497587890625,-0.0034380704164505,-0.1661443710327148,-0.0337779372930526
1761235079151625200,0.515625244140625,0.0145862624049186,-0.1266307830810547,0.0056535005569458
1761235079169663200,0.533663330078125,0.0503256656229496,-0.0104074478149414,0.0796731263399124
1761235079187700200,0.5517001953125,-0.0143887922167778,-0.0229558944702148,-0.0389653891324996
1761235079205738000,0.569738037109375,0.0302729532122612,-0.1826410293579101,-0.03071229159832
1761235079223775500,0.587775390625,0.0082983002066612,-0.1910200119018554,-0.0284884721040725
1761235079241813800,0.605813720703125,-0.0804326087236404,-0.0227870941162109,-0.051418513059616
1761235079259850800,0.623850830078125,-0.0668773800134658,-0.036722183227539,-0.0660630613565445
1761235079277889000,0.641888916015625,-0.0202234536409378,-0.070103645324707,-0.1055897623300552
1761235079295926000,0.659926025390625,0.0232166051864624,-0.0487651824951171,-0.0702417492866516
1761235079313964000,0.677964111328125,0.0134382992982864,0.1261520385742187,0.0785638988018035
1761235079331999200,0.695999267578125,0.0497632622718811,0.1201906204223632,-0.0359872281551361
1761235079350039800,0.714039794921875,0.0859897881746292,-0.0772075653076171,-0.0365123897790908
1761235079368077300,0.732077392578125,0.0586944669485092,-0.1163902282714843,-0.0202418863773345
1761235079386114300,0.7501142578125,-0.0282430201768875,0.0188360214233398,-0.1356664150953292
1761235079404151600,0.768151611328125,-0.0311895906925201,-0.0036916732788085,-0.0876391977071762
1761235079422189600,0.786189453125,-0.0023014396429061,-0.0485000610351562,0.0484629422426223
1761235079440226600,0.8042265625,-0.0549032539129257,-0.0444393157958984,0.0286526829004287
1761235079458265000,0.82226513671875,-0.0233202874660491,-0.0520992279052734,0.0015556514263153
1761235079476302300,0.84030224609375,-0.0307152271270751,-0.0968351364135742,-0.0483842939138412
1761235079494339800,0.85833984375,-0.1498025953769683,-0.1415653228759765,0.0263333171606063
1761235079512377000,0.876377197265625,-0.239488810300827,-0.1246356964111328,0.0600506514310836
1761235079530415600,0.89441552734375,-0.1857537627220153,-0.0629806518554687,0.0697988420724868
1761235079548452000,0.9124521484375,-0.0679785311222076,0.0737762451171875,-0.0478508919477462
1761235079566490400,0.930490478515625,0.0748589932918548,-0.0031042098999023,-0.0729187428951263
1761235079584527400,0.94852734375,0.1067286729812622,-0.1095447540283203,-0.1445386111736297
1761235079602565600,0.966565673828125,-0.0835080444812774,-0.0445423126220703,-0.1180002465844154
1761235079620596700,0.9845966796875,-0.0991306602954864,0.0583486557006835,-0.0147745907306671
1761235079638641000,1.002640869140625,-0.0260167717933654,0.0202703475952148,0.0012991726398468
1761235079656678100,1.02067822265625,0.031708538532257,-0.1289148330688476,0.0685496404767036
1761235079674715400,1.03871533203125,-0.0598011910915374,-0.1353845596313476,0.0699579417705535
1761235079692753700,1.056753662109375,-0.1663333475589752,-0.0302753448486328,0.0058743730187416
1761235079710791000,1.074791015625,-0.1290400028228759,0.0333814620971679,-0.0503665581345558
1761235079728828400,1.092828369140625,-0.0149653255939483,0.005833625793457,-0.1219108551740646
1761235079746866400,1.110866455078125,-0.0007863938808441,-0.0304698944091796,-0.0545556247234344
1761235079764903700,1.128903564453125,-0.0130310654640197,-0.0353994369506835,-0.0241671726107597
1761235079782941200,1.146941162109375,-0.0261202454566955,-0.10546875,-0.0448092222213745
1761235079800978700,1.164978759765625,-0.0635448992252349,-0.1059989929199218,-0.0070052668452262
1761235079819017000,1.183016845703125,-0.1212774217128753,-0.0466585159301757,-0.0170258283615112
1761235079837053400,1.201053466796875,-0.0708514750003814,-0.0138607025146484,-0.0030431970953941
1761235079855091700,1.219091796875,0.0178766548633575,0.031865119934082,0.0458436533808708
1761235079873128700,1.237128662109375,0.0220875442028045,0.0015716552734375,-0.0280722603201866
1761235079891167000,1.2551669921875,0.0316566526889801,-0.0835599899291992,-0.0833606794476509
1761235079909200400,1.273200439453125,-0.0617489516735076,-0.0868196487426757,-0.0639256685972213
1761235079927242500,1.291242431640625,-0.1403163075447082,-0.0474863052368164,0.0436697006225585
1761235079945279200,1.309279296875,-0.1589763462543487,-0.044875144958496,-0.0050657168030738
1761235079963317500,1.3273173828125,-0.0867041051387786,-0.0897636413574218,-0.0058745294809341
1761235079981354800,1.345354736328125,-0.0876712203025817,-0.1087198257446289,0.0252883359789848
1761235079999388700,1.363388671875,-0.0713086426258087,-0.0578746795654296,-0.040648378431797
1761235080017433900,1.381433837890625,-0.05902561545372,-0.0263996124267578,-0.0487652048468589
1761235080035467500,1.399467529296875,-0.0443110764026641,-0.0830583572387695,-0.0042345449328422
1761235080053504800,1.4175048828125,0.0153585970401763,-0.1158361434936523,0.0461853109300136
1761235080071542800,1.435542724609375,-0.0512702167034149,-0.0446977615356445,0.0302672460675239
1761235080089579800,1.453579833984375,-0.076072096824646,-0.0416488647460937,0.0182177424430847
1761235080107617800,1.47161767578125,-0.0502346158027648,-0.0776700973510742,-0.0541251525282859
1761235080125655300,1.4896552734375,0.0023348629474639,-0.0469131469726562,-0.0629332736134529
1761235080143693300,1.507693359375,0.0187838971614837,0.0035638809204101,-0.0398517698049545
1761235080161730600,1.52573046875,-0.0050696730613708,0.0272979736328125,-0.0159328281879425
1761235080179765800,1.543765869140625,0.0291976928710937,-0.0370349884033203,0.0048623457551002
1761235080197808600,1.56180859375,0.0258896052837371,-0.0792531967163086,-0.0199429467320442
1761235080215843600,1.579843505859375,-0.0186294913291931,-0.0447092056274414,0.007063053548336
1761235080233880300,1.59788037109375,-0.0301170647144317,0.011366844177246,-7.18608498573e-05
1761235080251908600,1.61590869140625,0.0723234862089157,0.0087747573852539,-0.0090054050087928
1761235080269955800,1.633955810546875,0.0725314021110534,-0.0749235153198242,-0.0135721191763877
1761235080287982600,1.651982666015625,0.0246625840663909,-0.0715599060058593,-0.006295695900917
1761235080306031400,1.67003125,-0.0492230951786041,-0.0146989822387695,-0.0134138464927673
1761235080324069400,1.6880693359375,-0.0420068800449371,-0.0465688705444335,-0.0083031132817268
1761235080342106000,1.706106201171875,0.0043538808822631,-0.0970783233642578,-0.0202657654881477
1761235080360144100,1.72414404296875,-0.0037651062011718,-0.0967597961425781,-0.0488821938633918
1761235080378181400,1.742181396484375,-0.0110101401805877,-0.0420589447021484,-0.0192928910255432
1761235080396220000,1.760219970703125,-0.0023123621940612,-0.0184354782104492,-9.70140099525e-05
1761235080414256600,1.778256591796875,0.0186227858066558,-0.0140266418457031,0.0199373885989189
1761235080432295000,1.796294921875,0.0187544822692871,-0.0368881225585937,-0.0122750326991081
1761235080450331600,1.81433154296875,0.0204339325428009,-0.0498085021972656,-0.0208963826298713
1761235080468369700,1.83236962890625,0.0161648690700531,-0.0776519775390625,-0.0224137231707572
1761235080486407000,1.850406982421875,0.0649814009666442,-0.0717287063598632,-0.0062424093484878
1761235080504445000,1.86844482421875,0.017964094877243,-0.0320348739624023,-0.0344401076436042
1761235080522482000,1.88648193359375,-0.0509949922561645,0.009230613708496,-0.0287727117538452
1761235080540520200,1.904520263671875,-0.029418796300888,-0.0404071807861328,-0.0394838526844978
1761235080558557200,1.92255712890625,0.0005920827388763,-0.0732746124267578,-0.0553636476397514
1761235080576595500,1.940595458984375,0.0104233622550964,-0.030487060546875,-0.0379499942064285
1761235080594632000,1.9586318359375,0.0090989470481872,-0.071263313293457,-0.0284655690193176
1761235080612671200,1.976671142578125,0.0264800786972045,-0.1099014282226562,-0.0551326423883438
1761235080630707700,1.994707763671875,-0.0463791787624359,-0.0773448944091796,-0.0415099188685417
1761235080648746000,2.01274609375,-0.0767035484313964,0.0061960220336914,-0.0267003551125526
1761235080666780200,2.0307802734375,-0.0542106032371521,-0.0522899627685546,-0.0448264107108116
1761235080684821500,2.048821533203125,-0.0380823016166687,-0.0966520309448242,-0.0528953075408935
1761235080702860500,2.066860595703125,-0.0498003959655761,-0.0475826263427734,-0.0342427715659141
1761235080720896000,2.08489599609375,-0.06150883436203,0.0107860565185546,0.0027623772621154
1761235080738933200,2.102933349609375,-0.0649797916412353,0.014317512512207,-0.0177087634801864
1761235080756960500,2.12096044921875,-0.0250940918922424,-0.062662124633789,-0.0253113284707069
1761235080775007500,2.139007568359375,-0.0117154717445373,-0.0993404388427734,-0.0450300984084606
1761235080793047800,2.1570478515625,0.0414316356182098,-0.1221427917480468,-0.0930841863155365
1761235080811083500,2.17508349609375,0.0300327837467193,-0.0580091476440429,-0.0520509034395217
1761235080829117700,2.19311767578125,-0.0579585134983062,0.008772850036621,-0.0020633451640605
1761235080847159000,2.211158935546875,-0.0581586062908172,-0.0043659210205078,-0.0264476910233497
1761235080865197000,2.229197021484375,-0.0658102631568908,-0.0260448455810546,-0.0408539064228534
1761235080883234000,2.247234130859375,-0.0467541515827178,-0.0147705078125,-0.0260594300925731
1761235080901271800,2.265271728515625,-0.0378488004207611,-0.0382814407348632,-0.0216921083629131
1761235080919313000,2.28331298828125,-0.0035164654254913,-0.109771728515625,0.0015671476721763
1761235080937347300,2.301347412109375,-0.0196954309940338,-0.1022815704345703,-0.0140191353857517
1761235080955384000,2.319384033203125,-0.037431389093399,0.0082817077636718,0.0180763080716133
1761235080973422600,2.337422607421875,-0.0423694252967834,-0.0040473937988281,0.0302901044487953
1761235080991459300,2.355459228515625,-0.0396734178066253,-0.0205516815185546,-0.0053671151399612
1761235081009497300,2.373497314453125,0.0040231645107269,-0.056797981262207,-0.009994838386774
1761235081027534600,2.39153466796875,-0.0482292771339416,-0.1149549484252929,0.0110750682651996
1761235081045572900,2.40957275390625,-0.0795196890830993,-0.0755643844604492,0.0085074305534362
1761235081063609900,2.42760986328125,-0.0284083485603332,-0.0668773651123046,-0.0239784196019172
1761235081081648400,2.4456484375,0.026147574186325,-0.0539112091064453,-0.0111618898808956
1761235081099680500,2.463680419921875,0.0519661307334899,-0.0472431182861328,-0.0107872821390628
1761235081117721600,2.4817216796875,0.0213960111141204,-0.0488100051879882,-0.0393816940486431
1761235081135760400,2.499760498046875,-0.0212271809577941,-6.86645507812e-05,-0.0187249518930912
1761235081153798400,2.51779833984375,-0.0148380100727081,-0.0364646911621093,-0.0224735997617244
1761235081171835100,2.535835205078125,-0.0324218273162841,-0.0072507858276367,-0.040924672037363
1761235081189873400,2.553873291015625,-0.0245681703090667,-4.4822692871e-05,-0.018926303833723
1761235081207910100,2.57191015625,0.0481445789337158,-0.0374088287353515,-0.051506582647562
1761235081225948400,2.589948486328125,0.0798199921846389,-0.0770044326782226,-0.0112669058144092
1761235081243985700,2.607985595703125,0.0167617797851562,-0.0640344619750976,-0.0013754069805145
1761235081262024000,2.62602392578125,-0.0171331465244293,-0.0622816085815429,-0.0214678645133972
1761235081280061000,2.64406103515625,-0.0213792920112609,-0.066751480102539,-0.0061138644814491
1761235081298099000,2.662098876953125,-0.0243668854236602,-0.0708560943603515,-0.0167676769196987
1761235081316136000,2.680135986328125,-0.0139101445674896,-0.1078376770019531,-0.0251764990389347
1761235081334174200,2.69817431640625,-0.008291482925415,-0.0727167129516601,-0.0219133794307708
1761235081352208100,2.7162080078125,0.0124405622482299,-0.0219316482543945,-0.0315417908132076
1761235081370252000,2.734251953125,0.05270916223526,-0.0503320693969726,-0.0420440323650836
1761235081388286200,2.7522861328125,0.0878006517887115,-0.0783815383911132,-0.0444353446364402
1761235081406324200,2.77032421875,0.0733764767646789,-0.0613861083984375,0.0062543489038944
1761235081424350200,2.78835009765625,0.015423834323883,-0.0521631240844726,0.040920466184616
1761235081442399700,2.806399658203125,0.0142627954483032,-0.0648632049560546,0.0294687338173389
1761235081460436700,2.824436767578125,-0.0757952630519867,-0.0264892578125,-0.0399903319776058
1761235081478475000,2.84247509765625,-0.0429258048534393,0.0065822601318359,-0.0284414887428283
1761235081496512300,2.86051220703125,0.0539448261260986,-0.0227422714233398,-0.0249815434217453
1761235081514545700,2.878545654296875,0.0708829462528228,-0.0662364959716796,-0.022801537066698
1761235081532591400,2.89659130859375,0.0104457736015319,-0.1207475662231445,-0.0169520415365695
1761235081550625000,2.914625,-0.0096664428710937,-0.0649757385253906,-0.0211480520665645
1761235081568650200,2.932650146484375,0.0205367803573608,-0.0508079528808593,-0.0302968621253967
1761235081586688300,2.950688232421875,0.0487931221723556,-0.0830326080322265,-0.0105141848325729
1761235081604736800,2.96873681640625,0.0218847692012786,-0.05682373046875,-0.0197548419237136
1761235081622762200,2.98676220703125,0.0288054347038269,0.0186309814453125,-0.0146624706685543
1761235081640815400,3.0048154296875,0.0373575985431671,-0.0059614181518554,-0.0166224632412195
1761235081658850800,3.022850830078125,0.0538613200187683,-0.0737276077270507,-0.0499420650303363
1761235081676887600,3.040887451171875,0.046382188796997,-0.0758752822875976,-0.0508297309279441
1761235081694925600,3.058925537109375,0.0177632868289947,-0.0558843612670898,-0.0439953505992889
1761235081712962800,3.076962890625,0.0374190509319305,-0.0327157974243164,-0.0173772368580102
1761235081731001000,3.0950009765625,-0.0088171064853668,-0.0156135559082031,0.000567901879549
1761235081749037800,3.113037841796875,0.026503175497055,-0.0618915557861328,-0.0351379849016666
1761235081767077400,3.131077392578125,0.0986815243959426,-0.0700664520263671,-0.0455725863575935
1761235081785100300,3.149100341796875,0.076629638671875,-0.0554790496826171,-0.0507726110517978
1761235081803151400,3.1671513671875,0.0274090766906738,-0.0357084274291992,-0.048304446041584
1761235081821188400,3.185188232421875,-0.0134915113449096,-0.0409679412841796,-0.0836923420429229
1761235081839222800,3.203222900390625,-0.0142203271389007,-0.0113725662231445,-0.0470967814326286
1761235081857263000,3.22126318359375,-0.0416369438171386,-0.0251979827880859,-0.0608006156980991
1761235081875301400,3.23930126953125,0.000721663236618,-0.0635662078857421,-0.0521388947963714
1761235081893338400,3.25733837890625,-0.0011548399925231,-0.057662010192871,-0.019828712567687
1761235081911376600,3.275376708984375,-0.0919534862041473,-0.0321788787841796,-0.0151325203478336
1761235081929409300,3.2934091796875,-0.1003963649272918,-0.029311180114746,-0.0520779117941856
1761235081947452000,3.311451904296875,-0.0508493483066558,-0.0482025146484375,-0.0569846183061599
1761235081965489000,3.329489013671875,-0.004922330379486,-0.0897779464721679,-0.0064847581088542
1761235081983527200,3.347527099609375,0.0150277912616729,-0.0803518295288086,0.0137278120964765
1761235082001564200,3.365564208984375,-0.0163810849189758,-0.0405807495117187,-0.0018214397132396
1761235082019592400,3.383592529296875,0.0138881206512451,-0.034912109375,0.066307708621025
1761235082037639700,3.4016396484375,-0.0124281346797943,-0.0401573181152343,0.0128847509622573
1761235082055677400,3.419677490234375,-0.0029956698417663,-0.0513229370117187,-0.0080601722002029
1761235082073714200,3.437714111328125,0.0090066492557525,-0.0348262786865234,0.0561718121170997
1761235082091752200,3.455752197265625,-0.0634552836418151,0.0086488723754882,0.0529979839920997
1761235082109789700,3.473789794921875,-0.0613672733306884,-0.0342216491699218,0.003292815759778
1761235082127828000,3.491827880859375,-0.125081866979599,-0.0437393188476562,-0.0537716299295425
1761235082145865000,3.509864990234375,-0.1284620761871338,-0.0677824020385742,-0.0677849948406219
1761235082163903000,3.527903076171875,-0.0514166057109832,-0.0739164352416992,-5.57675957679e-05
1761235082181938200,3.545938232421875,-0.0280016064643859,-0.040816307067871,0.0251117832958698
1761235082199980000,3.56397998046875,0.0034379363059997,-0.0694284439086914,-0.0001477245241403
1761235082218015200,3.58201513671875,-0.0475346744060516,-0.0233259201049804,-0.0259334426373243
1761235082236053000,3.600052978515625,-0.051659733057022,-0.0167493820190429,-0.0157552044838666
1761235082254094800,3.6180947265625,-0.0181007981300354,-0.0570278167724609,0.0121414950117468
1761235082272128500,3.63612841796875,0.0214126408100128,-0.075357437133789,0.0213036518543958
1761235082290165200,3.654165283203125,-0.0371773242950439,-0.0542469024658203,0.0144151234999299
1761235082308203500,3.67220361328125,-0.0488943457603454,-0.0791187286376953,-0.0400125049054622
1761235082326240800,3.69024072265625,-0.0414063930511474,-0.0803985595703125,-0.0482552871108055
1761235082344278500,3.708278564453125,0.0127319395542144,-0.0711317062377929,-0.0398895367980003
1761235082362315800,3.726315673828125,0.0405340790748596,-0.0557222366333007,-0.0069796219468116
1761235082380354000,3.74435400390625,0.0664030015468597,-0.0267000198364257,-0.0041019637137651
1761235082398391000,3.76239111328125,-0.0370820760726928,-0.0382814407348632,-0.0332264304161071
1761235082416429300,3.78042919921875,-0.0894882380962371,-0.0379695892333984,-0.0555064603686332
1761235082434466300,3.79846630859375,-0.0596103370189666,-0.0321054458618164,-0.0214259177446365
1761235082452504300,3.81650439453125,-0.0332395434379577,-0.0568771362304687,-0.0065751280635595
1761235082470541300,3.834541259765625,0.0061846375465393,-0.0564174652099609,-0.015163829550147
1761235082488579600,3.85257958984375,-0.0117132365703582,-0.0215787887573242,-0.0119533613324165
1761235082506616300,3.8706162109375,-0.012844830751419,-0.0268898010253906,-0.0151356365531682
1761235082524653600,3.888653564453125,0.02788707613945,-0.0387678146362304,-0.0326220989227294
1761235082542692400,3.9066923828125,0.0316806733608245,-0.0707836151123046,-0.0126517005264759
1761235082560729600,3.9247294921875,0.016367495059967,-0.0777196884155273,-0.0321284085512161
1761235082578766800,3.942766845703125,-0.0250335335731506,-0.0512361526489257,-0.0420276448130607
1761235082596804900,3.960804931640625,-0.0166281163692474,-0.0527582168579101,-0.0341613925993442
1761235082614841900,3.978841796875,-0.0028751492500305,-0.0442085266113281,-0.0538399517536163
1761235082632880000,3.996880126953125,-0.001027762889862,-0.0339746475219726,-0.0356292352080345
1761235082650917000,4.014917236328125,0.0105185806751251,0.0023651123046875,0.0172156356275081
1761235082668955000,4.032954833984375,0.0183012187480926,-0.0465860366821289,0.0285529159009456
1761235082686993700,4.05099365234375,0.0157051384449005,-0.0776567459106445,-0.0450348109006881
1761235082705029000,4.069029052734375,0.0239451229572296,-0.0929470062255859,-0.0210974439978599
1761235082723067100,4.087067138671875,0.0170051753520965,-0.0421905517578125,0.0125424452126026
1761235082741105200,4.105105224609375,-0.0303419828414917,-0.0334596633911132,-0.0572053380310535
1761235082759144000,4.12314404296875,0.0027362704277038,-0.053481101989746,-0.1034324243664741
1761235082777181000,4.141180908203125,-0.0164202749729156,-0.0630445480346679,-0.0790101960301399
1761235082795218000,4.159218017578125,-0.0579926073551178,-0.0461635589599609,-0.034998208284378
1761235082813255700,4.177255615234375,-0.0355147421360015,-0.0160226821899414,-0.0590165704488754
1761235082831292700,4.195292724609375,0.0306231975555419,-0.0644655227661132,-0.0327433198690414
1761235082849329000,4.213328857421875,0.0042183697223663,-0.0469856262207031,0.0479567050933837
1761235082867370200,4.231370361328125,-0.0564862191677093,-0.0149717330932617,0.0225204937160015
1761235082885406200,4.24940625,-0.0485392808914184,-0.000594139099121,-0.0538883507251739
1761235082903433700,4.267433837890625,-0.0095447897911071,-0.0564785003662109,-0.0290401875972747
1761235082921471000,4.285470947265625,-0.0104710757732391,-0.096013069152832,0.0006487825885415
1761235082939518500,4.3035185546875,-0.0252992808818817,-0.0527925491333007,-0.0281955730170011
1761235082957545200,4.321545166015625,-0.0225204527378082,-0.097599983215332,-0.0187405366450548
1761235082975593500,4.339593505859375,-0.0529956221580505,-0.1037750244140625,0.0133832348510622
1761235082993631700,4.3576318359375,-0.0749219357967376,-0.0272073745727539,0.0235129483044147
1761235083011668500,4.37566845703125,-0.0442587435245513,-0.0010414123535156,0.0264509990811347
1761235083029706800,4.393706787109375,-0.1000143885612487,0.0321063995361328,-0.0006993114948272
1761235083047744000,4.411743896484375,-0.0482316613197326,-0.029001235961914,0.0272691864520311
1761235083065782300,4.4297822265625,0.0275037288665771,-0.1552047729492187,-0.005393766798079
1761235083083819000,4.447819091796875,-0.0292814075946807,-0.1252527236938476,0.0120157357305288
1761235083101857300,4.465857177734375,-0.1057018935680389,-0.0346832275390625,-0.0078399945050477
1761235083119894300,4.483894287109375,0.0116101801395416,-0.0440406799316406,-0.0077632735483348
1761235083137932500,4.5019326171875,0.0737153589725494,-0.0632667541503906,-0.0240377318114042
1761235083155969300,4.51996923828125,0.0299581289291381,-0.0377092361450195,-0.0010574066545814
1761235083174007600,4.538007568359375,-0.026414543390274,-0.0038042068481445,0.0003312730696052
1761235083192044300,4.556044189453125,-0.0459232628345489,-0.0146427154541015,-0.001041775685735
1761235083210082300,4.574082275390625,-0.0248468816280365,-0.0021829605102539,-0.0137011706829071
1761235083228119300,4.592119384765625,0.0272834599018096,-0.0125150680541992,-0.0167919211089611
1761235083246157800,4.61015771484375,0.0445387959480285,-0.0683326721191406,-0.0380750112235546
1761235083264194600,4.628194580078125,0.00663822889328,-0.0758438110351562,-0.0382221527397632
1761235083282233000,4.646233154296875,-0.0277866125106811,-0.0284280776977539,-0.0052479933947324
1761235083300270000,4.66427001953125,0.0427875816822052,-0.0438880920410156,0.0162665657699108
1761235083318307800,4.682307861328125,0.0017900168895721,-0.0252666473388671,0.0170100964605808
1761235083336345300,4.700345458984375,-0.0564012229442596,-0.0344352722167968,-0.0193973891437053
1761235083354379300,4.718379150390625,-0.0251051783561706,-0.0680971145629882,-0.0366756878793239
1761235083372424400,4.736424560546875,-0.0605307519435882,-0.0516281127929687,-0.0186461042612791
1761235083390458000,4.7544580078125,-0.0525253415107727,-0.0248498916625976,-0.0020255222916603
1761235083408495000,4.7724951171875,-0.0032460093498229,-0.0394001007080078,-0.000896415207535
1761235083426533000,4.790533203125,-0.0471240580081939,-0.11944580078125,-0.0475686267018318
1761235083444570600,4.808570556640625,-0.0792580246925354,-0.1269054412841797,-0.082552321255207
1761235083462609000,4.82660888671875,-0.0278724431991577,-0.0757417678833007,-0.0567225292325019
1761235083480645600,4.844645751953125,0.0721168965101242,-0.0257816314697265,-0.0278644002974033
1761235083498684000,4.862683837890625,0.1593274176120758,-0.0499210357666015,-0.0527427084743976
1761235083516721000,4.880720947265625,0.070538118481636,-0.0756292343139648,-0.0453022196888923
1761235083534758000,4.8987578125,-0.0476821959018707,-0.0504274368286132,-0.0415262356400489
1761235083552797200,4.916797119140625,-0.0328668355941772,0.0046596527099609,-0.0245499014854431
1761235083570834000,4.934833984375,-0.0057319700717926,-0.0025701522827148,-0.0313765816390514
1761235083588859100,4.952859130859375,0.0469968914985656,-0.0889472961425781,-0.0064982902258634
1761235083606910700,4.97091064453125,0.0371741950511932,-0.0778331756591796,-0.0137473922222852
1761235083624944600,4.988944580078125,0.0483126044273376,-0.0143470764160156,-0.0168514400720596
1761235083642984400,5.006984375,0.0603386461734771,0.023177146911621,0.0027240011841058
1761235083661021700,5.025021728515625,0.0769885778427124,-0.0379600524902343,-0.0101960152387619
1761235083679059500,5.0430595703125,0.049171820282936,-0.0768165588378906,-0.0345895662903785
1761235083697096200,5.06109619140625,-0.0118588507175445,-0.0065927505493164,0.0358259081840515
1761235083715133700,5.0791337890625,-0.017562985420227,0.0079402923583984,0.0212616939097642
1761235083733173000,5.097173095703125,-0.0313896685838699,-0.0688304901123046,-0.0570846647024154
1761235083751209700,5.115209716796875,-0.0199655890464782,-0.0863809585571289,-0.0677730962634086
1761235083769243600,5.13324365234375,-0.0091236233711242,-0.0479211807250976,0.018529862165451
1761235083787273000,5.15127294921875,-0.0589785277843475,-0.007455825805664,-0.0320987962186336
1761235083805322000,5.169322021484375,-0.0309437364339828,-0.0946865081787109,-0.0412942208349704
1761235083823360300,5.1873603515625,-0.046940803527832,-0.1188793182373046,-0.0473372861742973
1761235083841397000,5.20539697265625,-0.0149294584989547,-0.0974159240722656,-0.1006800234317779
1761235083859435300,5.223435302734375,0.0423258394002914,-0.052412986755371,-0.0866289287805557
1761235083877472300,5.24147216796875,0.0297143906354904,-0.0490245819091796,-0.0201001092791557
1761235083895510300,5.25951025390625,0.0862104296684265,-0.0436029434204101,0.048961091786623
1761235083913547500,5.277547607421875,0.0312594473361969,-0.0449457168579101,-0.0334343686699867
1761235083931574500,5.295574462890625,0.0042817443609237,-0.0409040451049804,-0.0892519950866699
1761235083949622500,5.31362255859375,0.0657428652048111,-0.0810251235961914,0.0365674793720245
1761235083967660500,5.33166064453125,-0.0037018358707427,-0.0034456253051757,-0.0612176097929477
1761235083985697800,5.34969775390625,-0.0064609348773956,0.0637674331665039,-0.1452397108078003
1761235084003736000,5.367736083984375,0.0047420114278793,0.0068778991699218,-0.1351953744888305
1761235084021769500,5.38576953125,0.0046753138303756,-0.0831880569458007,-0.0305178388953208
1761235084039814100,5.403814208984375,-0.0359630286693573,-0.0655183792114257,-0.0028758943080902
1761235084057847800,5.421847900390625,-0.1401259005069732,-0.0673046112060546,0.0039859637618064
1761235084075889400,5.439889404296875,-0.1131076961755752,-0.0787620544433593,0.0202611610293388
1761235084093913900,5.457913818359375,0.003463327884674,-0.079106330871582,-0.0229563117027282
1761235084111961600,5.475961669921875,0.0110964626073837,-0.0285501480102539,0.0113984160125255
1761235084129998300,5.493998291015625,-0.0112260729074478,-0.0136308670043945,0.0251369476318359
1761235084148036600,5.51203662109375,0.0200482904911041,-0.0770368576049804,-0.0224597379565238
1761235084166073300,5.5300732421875,0.1021775528788566,-0.0878791809082031,0.0394906923174858
1761235084184110300,5.5481103515625,0.0695893093943595,-0.0494966506958007,-0.0386207662522792
1761235084202150100,5.566150146484375,0.0748596340417862,-0.0132036209106445,-0.0367778353393077
1761235084220187000,5.584186767578125,0.0427383929491043,-0.0367650985717773,-0.0606771185994148
1761235084238208000,5.6022080078125,0.0615154206752777,-0.0378608703613281,0.0050214454531669
1761235084256262000,5.620261962890625,0.0158172249794006,0.0422573089599609,0.0127915106713771
1761235084274299000,5.638298828125,-0.0111351460218429,-0.0452537536621093,-0.0308077000081539
1761235084292334600,5.65633447265625,-0.0436717867851257,-0.0611457824707031,-0.0327166207134723
1761235084310374000,5.674373779296875,-0.0629166364669799,-0.0582351684570312,-0.0239024646580219
1761235084328412200,5.692412109375,-0.0275762379169464,-0.1184406280517578,0.0039164014160633
1761235084346449000,5.710448974609375,-0.0198255032300949,-0.1303443908691406,0.0109521858394145
1761235084364487200,5.728487060546875,-0.0708746314048767,-0.0969352722167968,0.0485350303351879
1761235084382524400,5.7465244140625,-0.1052084118127822,-0.0620861053466796,0.0305868182331323
1761235084400562700,5.764562744140625,-0.0566347986459732,-0.0932226181030273,0.0447923056781291
1761235084418599700,5.782599609375,-0.0296560525894165,-0.0699539184570312,0.0467091910541057
1761235084436637700,5.8006376953125,0.0038333535194396,-0.0293903350830078,0.0245814584195613
1761235084454673700,5.818673583984375,0.077596977353096,-0.0563983917236328,0.0284233465790748
1761235084472713700,5.836713623046875,0.0713951811194419,-0.0789384841918945,-0.0096129216253757
1761235084490749700,5.854749755859375,0.0303874015808105,-0.0270576477050781,0.0091394335031509
1761235084508787700,5.87278759765625,0.0077476352453231,-0.0153837203979492,-0.0365213081240654
1761235084526823700,5.89082373046875,0.0655063018202781,-0.0530481338500976,-0.0546990483999252
1761235084544862500,5.908862548828125,0.0613754838705062,-0.0659894943237304,-0.0384442768990993
1761235084562900700,5.926900634765625,0.094200998544693,-0.0332679748535156,-0.0609719976782798
1761235084580938200,5.944938232421875,0.1149545460939407,-0.0716123580932617,-0.0933363586664199
1761235084598975000,5.96297509765625,0.1173450723290443,-0.071537971496582,-0.03958735242486
1761235084617013200,5.98101318359375,0.048051506280899,-0.0182933807373046,-0.0506509505212307
1761235084635050200,5.99905029296875,0.0444304347038269,-0.0245141983032226,-0.0143743455410003
1761235084653088300,6.017088134765625,-0.0087972283363342,0.0012483596801757,-0.0543098859488964
1761235084671125200,6.035125244140625,0.0405703634023666,-0.0450553894042968,-0.0286812223494052
1761235084689158000,6.053157958984375,0.0001828968524932,-0.0381374359130859,-0.0026179961860179
1761235084707202800,6.071202880859375,-0.0576190203428268,-0.0070753097534179,-0.0342112407088279
1761235084725238500,6.089238525390625,-0.0533185899257659,0.1743402481079101,-0.0259713754057884
1761235084743275300,6.107275146484375,0.1308328211307525,-0.1613273620605468,-0.0405652746558189
1761235084761301800,6.1253017578125,0.0884752422571182,-0.2193584442138672,-0.0719608813524246
1761235084779351000,6.14335107421875,-0.0472151488065719,-0.1848402023315429,-0.0320803001523017
1761235084797388800,6.161388916015625,-0.0903711467981338,-0.0389413833618164,0.0184052735567092
1761235084815426000,6.179426025390625,-0.0466499477624893,-0.0131902694702148,0.0045678988099098
1761235084833464000,6.197464111328125,0.0241378247737884,-0.015873908996582,-0.0526332631707191
1761235084851501300,6.215501220703125,0.0268155634403228,0.0122270584106445,0.0123519748449325
1761235166533937400,0.1289375,-0.0315186977386474,0.014906883239746,0.1252785176038742
1761235166552340200,0.14734033203125,0.0112735033035278,-0.0207700729370117,0.0681884810328483
1761235166570733300,0.1657333984375,-0.0164307355880737,-0.1136751174926757,0.0288039520382881
1761235166625769700,0.220769775390625,-0.0941509008407592,0.0290307998657226,0.1769111454486847
1761235166643809300,0.238809326171875,-0.0738587379455566,0.0587015151977539,0.1122099682688713
1761235166661846000,0.256845947265625,-0.0037846565246582,-0.0988368988037109,0.0476632118225097
1761235166679883800,0.2748837890625,-0.0636318922042846,-0.1242055892944336,0.0506060868501663
1761235166697920800,0.292920654296875,-0.1069000959396362,-0.0622825622558593,0.0185671746730804
1761235166715955500,0.31095556640625,-0.0967057943344116,-0.0459156036376953,0.0515690296888351
1761235166733986800,0.32898681640625,-0.0702319145202636,-0.0210657119750976,0.1138176620006561
1761235166752033800,0.34703369140625,-0.0771925449371337,-0.0926475524902343,0.0910290330648422
1761235166770070500,0.365070556640625,-0.0334558486938476,-0.0723237991333007,0.0610719919204711
1761235166788108300,0.3831083984375,0.054369568824768,-0.0669794082641601,0.0236747711896896
1761235166806145500,0.4011455078125,0.0162848234176635,-0.075261116027832,0.0843336731195449
1761235166824183300,0.419183349609375,0.0054935216903686,-0.0691099166870117,0.10664102435112
1761235166842220500,0.437220458984375,0.0073063373565673,0.0080385208129882,0.125732347369194
1761235166860255000,0.4552548828125,0.034574270248413,0.0423240661621093,0.0903846770524978
1761235166878295800,0.4732958984375,0.0159506797790527,-0.047957420349121,0.0505948066711425
1761235166896333800,0.491333740234375,0.0723876953125,-0.1089668273925781,0.0163801461458206
1761235166914370600,0.50937060546875,0.0298401117324829,-0.0728788375854492,0.1111944764852523
1761235166932408600,0.52740869140625,0.058910846710205,-0.0580978393554687,0.1062661260366439
1761235166950445800,0.54544580078125,0.086889624595642,-0.056136131286621,0.1129244118928909
1761235166968483300,0.5634833984375,0.0672166347503662,-0.1140623092651367,0.0394938141107559
1761235166986520800,0.581520751953125,-0.0095664262771606,-0.0529232025146484,0.0650008022785186
1761235167004558000,0.59955810546875,0.0399376153945922,0.0139274597167968,0.1428234130144119
1761235167022595600,0.617595703125,0.1668927669525146,-0.0234813690185546,0.1028275191783905
1761235167040633600,0.635633544921875,0.0589261054992675,-0.0731525421142578,0.0492219626903533
1761235167058670800,0.6536708984375,0.1057543754577636,-0.0820636749267578,0.0846340805292129
1761235167076708400,0.671708251953125,0.1056023836135864,-0.0471754074096679,0.0931006371974945
1761235167094745900,0.689745849609375,0.0211658477783203,-0.007857322692871,0.1001946032047271
1761235167112783600,0.70778369140625,0.0034465789794921,0.021590232849121,0.134812131524086
1761235167130822000,0.72582177734375,-0.0393342971801757,0.0392398834228515,0.0848921537399292
1761235167148857000,0.743857177734375,-0.0022989511489868,-0.0040197372436523,0.0335319340229034
1761235167166895900,0.761895751953125,-0.0587207078933715,-0.1054000854492187,0.0074828565120697
1761235167184931600,0.779931640625,-0.1576923131942749,-0.0349311828613281,0.1012902855873107
1761235167202958600,0.79795849609375,-0.092764139175415,0.0411233901977539,0.1668700724840164
1761235167221008600,0.816008544921875,-0.0635828971862793,0.0134439468383789,0.107451394200325
1761235167239034000,0.8340341796875,-0.0342621803283691,-0.0706806182861328,0.0501073598861694
1761235167257084000,0.852083984375,0.0049183368682861,-0.1214094161987304,0.0339752957224845
1761235167275120600,0.87012060546875,0.0097347497940063,-0.1473169326782226,0.0433691293001174
1761235167293158100,0.888158203125,-0.008735179901123,-0.0696725845336914,0.113282486796379
1761235167311196000,0.90619580078125,-0.0535496473312377,-0.0661544799804687,0.1358940005302429
1761235167329233700,0.924233642578125,-0.0618283748626709,-0.0653562545776367,0.137046605348587
1761235167347271000,0.94227099609375,-0.0320690870285034,-0.0956792831420898,0.0957173556089401
1761235167365308400,0.960308349609375,-0.0022138357162475,-0.0703821182250976,0.1212436184287071
1761235167383346000,0.978345947265625,-0.0498242378234863,-0.070016860961914,0.137791559100151
1761235167401383400,0.996383544921875,-0.0974560976028442,-0.0367040634155273,0.1292892694473266
1761235167419420700,1.014420654296875,-0.0524324178695678,-0.0610151290893554,0.1106886342167854
1761235167437458400,1.03245849609375,-0.0582029819488525,-0.0945625305175781,0.093971312046051
1761235167455495700,1.05049560546875,-0.0490541458129882,-0.0494852066040039,0.0799374878406524
1761235167473533400,1.068533447265625,-0.0292067527770996,-0.0493116378784179,-0.0141460224986076
1761235167491570200,1.086570068359375,-0.0137087106704711,-0.0596675872802734,0.0074381157755851
1761235167509608200,1.104608154296875,-0.0268677473068237,-0.0516128540039062,0.0369142591953277
1761235167527646200,1.122646240234375,-0.0124133825302124,-0.0628490447998046,0.063905693590641
1761235167545682700,1.1406826171875,0.013526439666748,-0.0915470123291015,0.0924005210399627
1761235167563721200,1.15872119140625,-0.0033806562423706,-0.0798511505126953,0.0527387410402298
1761235167581758200,1.17675830078125,-0.0510401725769043,-0.0739316940307617,0.0655803382396698
1761235167599796000,1.1947958984375,0.0148723125457763,-0.0977001190185546,0.0750755965709686
1761235167617833700,1.212833740234375,-0.0092741250991821,-0.0892982482910156,0.0898517072200775
1761235167635867600,1.23086767578125,0.0461182594299316,-0.0286102294921875,0.1225705370306968
1761235167653911300,1.248911376953125,0.0648927688598632,0.0438146591186523,0.1321535110473632
1761235167671945500,1.266945556640625,0.1112585067749023,0.0301361083984375,0.1013849228620529
1761235167689983500,1.2849833984375,0.0561434030532836,0.0057830810546875,0.0720389485359191
1761235167708021200,1.303021240234375,0.0101945400238037,0.0260591506958007,0.0459099784493446
1761235167726058800,1.321058837890625,-0.0220147371292114,-0.0284042358398437,0.0540118217468261
1761235167744096000,1.339095947265625,-0.0008766651153564,-0.1307306289672851,0.0144834145903587
1761235167762133500,1.357133544921875,-0.0505862236022949,-0.0977811813354492,0.0476065129041671
1761235167780167400,1.37516748046875,-0.0136826038360595,-0.0319223403930664,0.1065818592905998
1761235167798205000,1.393204833984375,-0.0077383518218994,-0.0076799392700195,0.1143365204334259
1761235167816249300,1.411249267578125,0.040858507156372,-0.0738353729248046,0.0694776102900505
1761235167834283800,1.42928369140625,0.0255324840545654,-0.0970602035522461,0.031803473830223
1761235167852308500,1.44730859375,0.0044152736663818,-0.0601816177368164,0.0426800027489662
1761235167870346200,1.46534619140625,-0.0053350925445556,-0.0224828720092773,0.1040513217449188
1761235167888396000,1.48339599609375,0.0086278915405273,-0.0130090713500976,0.0679379031062126
1761235167906420500,1.50142041015625,-0.0156613588333129,-0.0786056518554687,0.0358438491821289
1761235167924470500,1.519470458984375,0.0439416170120239,-0.0286941528320312,0.029396653175354
1761235167942508500,1.537508544921875,-0.0012744665145874,-0.0597076416015625,0.013890616595745
1761235167960545800,1.5555458984375,0.0265077352523803,-0.0754899978637695,0.0033892095088958
1761235167978583300,1.573583251953125,-0.0512087345123291,-0.1044435501098632,0.0296329036355018
1761235167996620500,1.59162060546875,-0.0565630197525024,-0.1232624053955078,-0.0010155290365219
1761235168014658600,1.609658447265625,-0.0864772796630859,0.0043649673461914,0.0525474101305007
1761235168032695800,1.62769580078125,0.0093991756439208,0.0780258178710937,0.1146254539489746
1761235168050733600,1.645733642578125,0.0422953367233276,-0.0207891464233398,0.1369929611682891
1761235168068770800,1.663770751953125,0.0008078813552856,-0.0333786010742187,0.1050878316164016
1761235168086808300,1.681808349609375,-0.0330759286880493,-0.0482845306396484,0.0690575540065765
1761235168104845800,1.699845703125,-0.0367984771728515,-0.0356884002685546,0.0723413676023483
1761235168122883300,1.71788330078125,-0.0169639587402343,-0.0910243988037109,0.0295198634266853
1761235168140920300,1.73592041015625,-0.0503462553024292,-0.0931015014648437,0.0752978846430778
1761235168158958000,1.7539580078125,-0.022878885269165,-0.0532197952270507,0.1082720831036567
1761235168176995600,1.77199560546875,-0.0534766912460327,-0.0241813659667968,0.075064480304718
1761235168195033900,1.790033935546875,0.005810260772705,-0.0504360198974609,0.02698515355587
1761235168213070800,1.80807080078125,-0.0276554822921752,-0.0449447631835937,0.0304051265120506
1761235168231108400,1.8261083984375,-0.0027322769165039,-0.0478343963623046,0.0559603199362754
1761235168249145900,1.844145751953125,-0.0348705053329467,-0.0307893753051757,0.0983833670616149
1761235168267183400,1.862183349609375,-0.0113999843597412,-0.0239229202270507,0.0814128071069717
1761235168285220900,1.880220947265625,0.0089044570922851,-0.0176897048950195,0.1138349249958992
1761235168303256600,1.898256591796875,0.019246220588684,-0.0609321594238281,0.1120089665055275
1761235168321297400,1.91629736328125,0.0190733671188354,-0.0273571014404296,0.1037084385752677
1761235168339333400,1.93433349609375,-0.0015016794204711,-0.1054897308349609,0.0679003223776817
1761235168357370000,1.9523701171875,0.0186419486999511,-0.0701122283935546,0.1098976656794548
1761235168375396400,1.970396240234375,0.0252050161361694,-0.0583686828613281,0.0505802482366561
1761235168393446000,1.98844580078125,0.0315948724746704,-0.0670013427734375,0.0826655924320221
1761235168411483600,2.006483642578125,0.0148682594299316,-0.0393009185791015,0.0928549095988273
1761235168429521000,2.02452099609375,0.0204161405563354,-0.0500040054321289,0.1063752770423889
1761235168447558700,2.04255859375,0.0163127183914184,-0.032078742980957,0.0836047455668449
1761235168465596200,2.06059619140625,-0.0254765748977661,-0.0947189331054687,0.0447137430310249
1761235168483633000,2.0786328125,0.0867042541503906,-0.0597667694091796,0.0284223780035972
1761235168501671000,2.0966708984375,-0.0141934156417846,-0.0479564666748046,0.0671150162816047
1761235168519708200,2.114708251953125,-0.0342148542404174,-0.005218505859375,0.1120205894112587
1761235168537745700,2.13274560546875,-0.0516245365142822,-0.0404472351074218,0.1194108873605728
1761235168555783700,2.15078369140625,-0.0481592416763305,-0.0459804534912109,0.0709681361913681
1761235168573820400,2.1688203125,-0.0655020475387573,-0.0363397598266601,0.08469158411026
1761235168591858400,2.1868583984375,-0.0569632053375244,-0.0330810546875,0.0753980875015258
1761235168609896000,2.20489599609375,-0.0717926025390625,-0.0300960540771484,0.0413302183151245
1761235168627933200,2.22293310546875,-0.0766639709472656,-0.0889253616333007,0.0043829232454299
1761235168645969200,2.24096923828125,-0.0653748512268066,-0.0371913909912109,0.0214692428708076
1761235168664009700,2.259009765625,-0.0634613037109375,-0.0717020034790039,0.0596790388226509
1761235168682045700,2.277045654296875,-0.0548282861709594,-0.064706802368164,0.0675704330205917
1761235168700081000,2.295080810546875,-0.0439381599426269,-0.001744270324707,0.0944867804646492
1761235168718123500,2.31312353515625,-0.0263968706130981,-0.0331792831420898,0.1030937433242797
1761235168736158500,2.331158447265625,0.0174765586853027,-0.0364933013916015,0.1134002804756164
1761235168754196000,2.349196044921875,0.0065265893936157,-0.0750913619995117,0.088228203356266
1761235168772233700,2.367233642578125,-0.0171676874160766,-0.0700321197509765,0.0742272064089775
1761235168790266600,2.3852666015625,0.0016634464263916,-0.0713319778442382,0.0787190049886703
1761235168808308000,2.403307861328125,-0.02012300491333,-0.0410318374633789,0.1053207218647003
1761235168826345500,2.421345458984375,0.0420693159103393,-0.0417251586914062,0.1163280457258224
1761235168844383200,2.43938330078125,-0.0049226284027099,-0.0527057647705078,0.1007892563939094
1761235168862420700,2.457420654296875,-0.0550839900970459,-0.0641241073608398,0.087603636085987
1761235168880446200,2.4754462890625,-0.0525922775268554,-0.0645503997802734,0.0927387550473213
1761235168898495700,2.493495849609375,-0.0509505271911621,-0.0548276901245117,0.0604942664504051
1761235168916533500,2.511533447265625,-0.0392148494720459,-0.0153875350952148,0.037861630320549
1761235168934570500,2.529570556640625,-0.0516128540039062,-0.0174770355224609,0.0653149262070655
1761235168952608500,2.5476083984375,0.0015633106231689,-0.0493717193603515,0.0737134665250778
1761235168970641700,2.5656416015625,-0.0248230695724487,-0.0378246307373046,0.0968079268932342
1761235168988682500,2.5836826171875,-0.0599783658981323,-0.003300666809082,0.0863939300179481
1761235169006720300,2.60172021484375,0.0070289373397827,-0.0470447540283203,0.0835572406649589
1761235169024749600,2.61974951171875,0.0315580368041992,-0.1021642684936523,0.0584475249052047
1761235169042784000,2.637783935546875,0.0733896493911743,-0.0752878189086914,0.0823475122451782
1761235169060833800,2.655833740234375,0.0825392007827758,-0.0279455184936523,0.0787158831954002
1761235169078870500,2.67387060546875,0.0623064041137695,-0.0291061401367187,0.1115183681249618
1761235169096908500,2.691908447265625,0.032812476158142,-0.0078163146972656,0.103629320859909
1761235169114945800,2.70994580078125,0.0414960384368896,-0.0664501190185546,0.0768934562802314
1761235169132982000,2.72798193359375,-0.0033895969390869,-0.0632896423339843,0.0705577433109283
1761235169151021800,2.746021728515625,-0.0256094932556152,-0.0390291213989257,0.0445944294333457
1761235169169058000,2.76405810546875,-0.0263208150863647,-0.0468511581420898,0.0686518847942352
1761235169187095300,2.78209521484375,-0.0036649703979492,-0.0145654678344726,0.0957329422235488
1761235169205133300,2.80013330078125,0.0040267705917358,-0.0951862335205078,0.0331338793039321
1761235169223170300,2.81817041015625,-0.0599238872528076,-0.0631542205810546,0.050066128373146
1761235169241208000,2.8362080078125,0.0095007419586181,-0.008254051208496,0.0687553435564041
1761235169259245800,2.854245849609375,-0.0371990203857421,-0.0613050460815429,0.0083168521523475
1761235169277283300,2.872283447265625,0.0259691476821899,-0.0761594772338867,0.0269218012690544
1761235169295320000,2.890320068359375,0.0016059875488281,-0.1111907958984375,0.0017184615135192
1761235169313358000,2.908358154296875,-0.0282760858535766,-0.0605058670043945,0.0428641289472579
1761235169331395800,2.926395751953125,0.0122274160385131,-0.0705175399780273,0.0449184477329254
1761235169349433300,2.944433349609375,-0.0258067846298217,-0.0619029998779296,0.081113651394844
1761235169367470300,2.96247021484375,-0.0160257816314697,-0.0304756164550781,0.1162970662117004
1761235169385508000,2.980508056640625,0.0061619281768798,-0.0401124954223632,0.0911685153841972
1761235169403545300,2.99854541015625,0.0203300714492797,0.0082473754882812,0.0726066455245018
1761235169421583600,3.01658349609375,0.0037907361984252,-0.0408239364624023,0.0789518058300018
1761235169439620600,3.03462060546875,0.0078511238098144,-0.0674142837524414,0.059810072183609
1761235169457658000,3.052658203125,-0.0090574026107788,-0.0686302185058593,0.0492997765541076
1761235169475694600,3.070694580078125,-0.024368405342102,-0.005681037902832,0.0513134747743606
1761235169493734000,3.08873388671875,-0.031865119934082,-0.0611515045166015,0.0716845244169235
1761235169511770400,3.106770263671875,-0.0016268491744995,-0.0450239181518554,0.0876950174570083
1761235169529808100,3.12480810546875,0.039925217628479,-0.0935630798339843,0.0539801269769668
1761235169547845400,3.142845458984375,0.0029839277267456,-0.085479736328125,0.0555088594555854
1761235169565883600,3.160883544921875,0.0050693750381469,-0.0533466339111328,0.0412520319223403
1761235169583920400,3.17892041015625,-0.0650957822799682,-0.0570068359375,0.0737698227167129
1761235169601957600,3.19695751953125,-0.0357998609542846,-0.0680217742919921,0.0963499844074249
1761235169619996400,3.214996337890625,0.0134919881820678,-0.0874824523925781,0.0927966386079788
1761235169638033000,3.233032958984375,0.0294371843338012,-0.0478553771972656,0.1089735478162765
1761235169656070100,3.251070068359375,0.0437997579574584,-0.0114603042602539,0.0884364247322082
1761235169674108000,3.26910791015625,0.020849585533142,-0.0036077499389648,0.1127871870994567
1761235169692145400,3.2871455078125,0.0325936079025268,-0.0009059906005859,0.0702278316020965
1761235169710173400,3.30517333984375,0.0193729400634765,-0.0407848358154296,0.0147345513105392
1761235169728206800,3.323206787109375,0.0364229679107666,-0.0843143463134765,-0.0217378884553909
1761235169746261000,3.341260986328125,-0.0416833162307739,-0.050058364868164,0.021615132689476
1761235169764295400,3.35929541015625,-0.0246526002883911,-0.0232439041137695,0.0517825335264205
1761235169782333200,3.377333251953125,-0.0339055061340332,-0.0697002410888671,0.0751775354146957
1761235169800364500,3.395364501953125,-0.03480064868927,-0.046600341796875,0.0616965293884277
1761235169818409200,3.4134091796875,-0.0292739868164062,-0.0586748123168945,0.0476502180099487
1761235169836445700,3.43144580078125,-0.0200059413909912,-0.0477371215820312,0.0732445269823074
1761235169854483200,3.449483154296875,0.0548014640808105,-0.0781269073486328,0.0455132871866226
1761235169872508700,3.4675087890625,0.0166612863540649,-0.0315361022949218,0.053910493850708
1761235169890558200,3.48555810546875,-0.0062474012374877,-0.0550870895385742,0.0707954764366149
1761235169908595500,3.503595458984375,-0.0089062452316284,-0.0758676528930664,0.0810713768005371
1761235169926634000,3.521634033203125,-0.0208256244659423,-0.0695018768310546,0.0498911887407302
1761235169944670200,3.539670166015625,0.0406069755554199,-0.0584745407104492,0.0468941628932952
1761235169962707700,3.557707763671875,0.0582994222640991,0.0186033248901367,0.0914102494716644
1761235169980745500,3.575745361328125,0.0493421554565429,-0.0426454544067382,0.064919576048851
1761235169998783200,3.593783203125,-0.0025259256362915,-0.0591421127319335,0.0805509686470031
1761235170016820200,3.6118203125,0.0120028257369995,-0.0708274841308593,0.0523255765438079
1761235170034858200,3.629858154296875,-0.021830677986145,-0.068429946899414,0.0186670124530792
1761235170052895500,3.6478955078125,-0.0349988937377929,-0.0512266159057617,0.0342132598161697
1761235170070933500,3.66593359375,-0.017868161201477,-0.0519428253173828,0.0819274336099624
1761235170088970200,3.68397021484375,-0.0346090793609619,0.001753807067871,0.0942355394363403
1761235170107008000,3.702008056640625,-0.0338767766952514,-0.001007080078125,0.1363970786333084
1761235170125045200,3.720045166015625,-0.0464899539947509,-0.0747261047363281,0.074021577835083
1761235170143083000,3.7380830078125,-0.0221458673477172,-0.0650691986083984,0.0301999002695083
1761235170161120000,3.7561201171875,-0.0702121257781982,-0.0466670989990234,0.0590406954288482
1761235170179157800,3.77415771484375,-0.0541155338287353,-0.0279064178466796,0.0982742607593536
1761235170197195500,3.792195556640625,-0.0413081645965576,-0.025975227355957,0.1209100633859634
1761235170215233300,3.8102333984375,-0.0273220539093017,-0.0292978286743164,0.0713697075843811
1761235170233270300,3.828270263671875,-0.0612999200820922,-0.0453109741210937,0.0688171237707138
1761235170251308000,3.84630810546875,-0.0499465465545654,-0.0528326034545898,0.0541590601205825
1761235170269343200,3.86434326171875,-0.0683186054229736,-0.0808296203613281,0.0858320444822311
1761235170287385900,3.8823857421875,-0.0267367362976074,-0.0334882736206054,0.0857493579387664
1761235170305419800,3.900419677734375,-0.0304374694824218,-0.087921142578125,0.0882744640111923
1761235170323458000,3.9184580078125,-0.0180401802062988,-0.0612745285034179,0.1006164103746414
1761235170341495000,3.9364951171875,-0.0173171758651733,-0.0608158111572265,0.099012017250061
1761235170359533300,3.954533203125,-0.0605648756027221,-0.0232858657836914,0.0964237004518508
1761235170377560600,3.972560546875,-0.0190143585205078,-0.0376043319702148,0.1210414618253707
1761235170395607000,3.99060693359375,0.0263720750808715,-0.0244674682617187,0.1026830524206161
1761235170413646600,4.008646484375,-0.019861102104187,-0.0398159027099609,0.0939186811447143
1761235170431683000,4.02668310546875,-0.0231519937515258,-0.0250358581542968,0.1034114360809326
1761235170449720300,4.04472021484375,-0.0375727415084838,-0.0539436340332031,0.0582973957061767
1761235170467758600,4.062758544921875,-0.0374795198440551,-0.0617847442626953,0.0137560218572616
1761235170485795000,4.080795166015625,-0.0252869129180908,-0.1004514694213867,0.0325328558683395
1761235170503833300,4.098833251953125,-0.0422792434692382,-0.0134878158569335,0.0719795674085617
1761235170521869800,4.116869873046875,-0.0557286739349365,-0.0537548065185546,0.092701107263565
1761235170539885000,4.134885009765625,-0.0461940765380859,-0.0543165206909179,0.0695659965276718
1761235170557949700,4.15294970703125,-0.0324957370758056,-0.0359153747558593,0.0584228187799453
1761235170575983000,4.170983154296875,-0.0014785528182983,0.0065193176269531,0.0316776633262634
1761235170594020400,4.189020263671875,0.0046850442886352,-0.050668716430664,0.0067426264286041
1761235170612057600,4.2070576171875,0.0225480794906616,-0.054443359375,0.049581840634346
1761235170630096000,4.225095947265625,0.0562664270401001,0.0229644775390625,0.1176182925701141
1761235170648132900,4.2431328125,0.0964292287826538,0.018498420715332,0.102445363998413
1761235170666170000,4.261170166015625,0.1289960145950317,-0.0587158203125,0.04320028424263
1761235170684207900,4.279207763671875,0.0922950506210327,-0.1206750869750976,0.0435745269060134
1761235170702245400,4.297245361328125,0.0581055879592895,-0.1026878356933593,0.0676413774490356
1761235170720265000,4.315264892578125,-0.0049655437469482,-0.0885753631591796,0.0903010815382003
1761235170738320100,4.333320068359375,0.049497365951538,-0.0428142547607421,0.116566777229309
1761235170756357600,4.351357666015625,0.0319131612777709,0.0028533935546875,0.1214285343885421
1761235170774395400,4.3693955078125,0.0380498170852661,-0.0152816772460937,0.0958970189094543
1761235170792433200,4.38743310546875,0.035451054573059,-0.0738058090209961,0.0396584868431091
1761235170810469600,4.4054697265625,0.0026932954788208,-0.0461711883544921,0.0411673039197921
1761235170828507400,4.42350732421875,0.0153038501739501,-0.0379371643066406,0.0118122547864913
1761235170846545000,4.441544921875,0.0443016290664672,-0.0566015243530273,-0.0038774907588958
1761235170864571100,4.459571044921875,0.0263265371322631,-0.0370540618896484,0.040334939956665
1761235170882620000,4.477619873046875,0.0171836614608764,-0.0118875503540039,0.0992640256881713
1761235170900658000,4.495657958984375,-0.0085146427154541,-0.0037193298339843,0.088593453168869
1761235170918691800,4.51369189453125,-0.0476391315460205,-0.0202226638793945,0.0245764106512069
1761235170936736800,4.53173681640625,-0.0660382509231567,-0.0691719055175781,0.062473215162754
1761235170954770200,4.549770263671875,-0.0695459842681884,-0.0836153030395507,0.0845106467604637
1761235170972807700,4.5678076171875,-0.0684075355529785,-0.0062780380249023,0.1258908212184906
1761235170990845000,4.585844970703125,-0.0828950405120849,-0.0183181762695312,0.1044397875666618
1761235171008882700,4.603882568359375,-0.1550720930099487,-0.036534309387207,0.0612104833126068
1761235171026920000,4.621919921875,-0.1625947952270507,-0.0881204605102539,0.0180082470178604
1761235171044951000,4.639950927734375,-0.139930248260498,-0.0495176315307617,0.0184642076492309
1761235171062995200,4.6579951171875,-0.073961853981018,-0.0843343734741211,-0.0058846771717071
1761235171081033000,4.676032958984375,0.0390836000442504,-0.0459833145141601,0.0130261704325675
1761235171099070000,4.694070068359375,0.0681463479995727,-0.011479377746582,0.0520670488476753
1761235171117107500,4.712107421875,0.0564121007919311,0.0055408477783203,0.0820553973317146
1761235171135145200,4.730145263671875,0.0515223741531372,-0.0385475158691406,0.100329041481018
1761235171153183000,4.748182861328125,0.0215984582901,-0.069493293762207,0.0726041048765182
1761235171171220000,4.766219970703125,-0.0493500232696533,-0.0935564041137695,0.0793299973011016
1761235171189257700,4.7842578125,-0.0214598178863525,-0.0903968811035156,0.1040873229503631
1761235171207287300,4.802287353515625,-0.0199122428894042,-0.0649976730346679,0.1387763768434524
1761235171225332700,4.820332763671875,-0.0411074161529541,-0.0693092346191406,0.1218601390719413
1761235171243369700,4.83836962890625,-0.0403163433074951,-0.1147289276123046,0.1044144704937934
1761235171261407500,4.856407470703125,-0.0052317380905151,-0.0878582000732421,0.1051090359687805
1761235171279444700,4.87444482421875,-0.0221306085586547,-0.0881795883178711,0.0966123193502426
1761235171297482800,4.892482666015625,-0.0675872564315795,-0.0094709396362304,0.124210387468338
1761235171315519500,4.91051953125,-0.017614722251892,-0.0373754501342773,0.0824528113007545
1761235171333557800,4.928557861328125,0.0256135463714599,-0.0668392181396484,0.0501931235194206
1761235171351595300,4.94659521484375,-0.0353754758834838,-0.0588350296020507,0.0849521234631538
1761235171369632800,4.9646328125,0.0316234827041626,-0.0811805725097656,0.0629437640309333
1761235171387669800,4.982669677734375,0.0393546819686889,-0.081181526184082,0.0450225844979286
1761235171405706800,5.000706787109375,0.0388534069061279,-0.1394882202148437,0.0702288970351219
1761235171423742700,5.01874267578125,0.0532619953155517,-0.1211137771606445,0.0894888788461685
1761235171441782500,5.036782470703125,0.064258337020874,-0.0921277999877929,0.0424708276987075
1761235171459823400,5.0548232421875,0.001335859298706,-0.0544404983520507,0.0761847719550132
1761235171477856300,5.072856201171875,0.0017527341842651,-0.0090236663818359,0.1293711364269256
1761235171495894800,5.090894775390625,0.0836292505264282,-0.0176076889038085,0.0825732126832008
1761235171513932500,5.1089326171875,0.1317642927169799,-0.0778722763061523,0.0233385860919952
1761235171531969800,5.1269697265625,0.0524308681488037,-0.0437040328979492,0.0456234589219093
1761235171550007600,5.145007568359375,0.0071817636489868,-0.0156373977661132,0.0382201820611953
1761235171568044800,5.163044921875,0.0172975063323974,-0.0617027282714843,-0.013158842921257
1761235171586081300,5.181081298828125,-0.0640251636505127,-0.0917367935180664,0.0052296593785285
1761235171604117800,5.19911767578125,-0.1638349294662475,-0.0251226425170898,0.0543607398867607
1761235171622160400,5.217160400390625,-0.0664126873016357,-0.0340452194213867,0.0057702660560607
1761235171640191700,5.235191650390625,0.1190584897994995,-0.0773000717163086,-0.007630631327629
1761235171658232600,5.253232666015625,0.1218183040618896,-0.0647230148315429,-0.0435182079672813
1761235171676269300,5.271269287109375,0.0402201414108276,-0.0634441375732421,0.0014667585492134
1761235171694307300,5.289307373046875,0.072092056274414,-0.0562105178833007,0.0208601430058479
1761235171712335000,5.307335205078125,0.0368014574050903,-0.0612258911132812,0.0305093452334404
1761235171730382800,5.3253828125,0.0071603059768676,0.0009937286376953,0.0610722973942756
1761235171748419300,5.34341943359375,-0.0571026802062988,0.0047712326049804,0.0754905417561531
1761235171766457000,5.36145703125,0.0042370557785034,-0.02972412109375,0.0597167238593101
1761235171784487200,5.379487060546875,-0.0112719535827636,-0.0430965423583984,0.022756390273571
1761235171802532600,5.39753271484375,0.1063005924224853,-0.0924844741821289,-0.0253611281514167
1761235171820569300,5.4155693359375,0.0494312047958374,-0.072484016418457,0.0146854370832443
1761235171838607400,5.433607421875,0.0443617105484008,-0.0455684661865234,0.0538458451628685
1761235171856645000,5.45164501953125,0.0478979349136352,-0.0340614318847656,0.0557379573583602
1761235171874682400,5.469682373046875,0.0672636032104492,-0.0868139266967773,0.0462045893073082
1761235171892719600,5.4877197265625,0.0679738521575927,0.0088167190551757,0.0284200236201286
1761235171910757600,5.505757568359375,0.0742188692092895,-0.1328773498535156,0.0480282232165336
1761235192439719200,0.11771923828125,-0.0559150874614715,-0.0749435424804687,-0.0173128843307495
1761235192457709600,0.13570947265625,-0.0252469182014465,-0.085855484008789,-0.0304750800132751
1761235192475742700,0.15374267578125,-0.0724113285541534,0.0149574279785156,-0.1384218335151672
1761235192493781800,0.17178173828125,0.0338682830333709,-0.000335693359375,-0.1016255617141723
1761235192511818800,0.18981884765625,0.1352006196975708,-0.0483789443969726,-0.1263642907142639
1761235192529856300,0.207856201171875,0.0506437718868255,-0.0187883377075195,-0.0504596829414367
1761235192547893800,0.225893798828125,0.1276867091655731,-0.076385498046875,-0.0019580721855163
1761235192565931000,0.243930908203125,0.1022267043590545,-0.0652399063110351,-0.0551678538322448
1761235192583968800,0.26196875,-0.076353520154953,-0.0169687271118164,-0.1591719388961792
1761235192602006000,0.280006103515625,0.0288840234279632,0.0138225555419921,-0.1744043827056884
1761235192620040700,0.298040771484375,0.0976576507091522,-0.0073299407958984,-0.0633478760719299
1761235192638083800,0.316083740234375,-0.0361528098583221,-0.1078262329101562,-0.0698959827423095
1761235192656118500,0.334118408203125,0.0237237513065338,-0.1329917907714843,-0.0490225553512573
1761235192674156300,0.35215625,0.037437617778778,0.0345392227172851,-0.0284538269042968
1761235192692192300,0.370192138671875,0.001227855682373,-0.03900146484375,-0.010511040687561
1761235192710227700,0.388227783203125,0.0004200339317321,-0.0880374908447265,-0.0126157402992248
1761235192728268500,0.4062685546875,0.0182205438613891,-0.0708065032958984,-0.0330722332000732
1761235192746306000,0.42430615234375,-0.0347086787223815,-0.0484952926635742,0.0350265502929687
1761235192764343600,0.442343505859375,0.0413709282875061,-0.1127500534057617,0.0547570586204528
1761235192782381300,0.46038134765625,0.0077249407768249,-0.083465576171875,-0.0222380757331848
1761235192800404000,0.478404052734375,-0.1040133237838745,-0.0620746612548828,-0.0399152040481567
1761235192818456300,0.496456298828125,-0.113588809967041,-0.0376710891723632,-0.0554792881011962
1761235192836493800,0.514493896484375,-0.0493189096450805,-0.0820808410644531,0.0345788598060607
1761235192854520800,0.532520751953125,0.0210279822349548,-0.0918111801147461,0.0382993817329406
1761235192872568800,0.55056884765625,-0.026372343301773,-0.0591802597045898,-0.0047730803489685
1761235192890606000,0.568606201171875,-0.0717410743236541,0.0104732513427734,0.0266424417495727
1761235192908643800,0.586643798828125,-0.0003018379211425,-0.0305328369140625,0.0174018740653991
1761235192926681000,0.60468115234375,-0.0687358379364013,-0.0349559783935546,-0.0055597424507141
1761235192944718800,0.62271875,0.0145336687564849,0.0229549407958984,0.081587016582489
1761235192962756000,0.640756103515625,0.1270370483398437,0.0130748748779296,0.109388530254364
1761235192980793900,0.6587939453125,0.2136827111244201,-0.0578279495239257,0.0035315752029418
1761235192998831600,0.67683154296875,0.1169449090957641,-0.0221567153930664,-0.2015629708766937
1761235193016868900,0.694868896484375,0.3358412981033325,-0.0530500411987304,-0.2991650998592376
1761235193034906600,0.71290673828125,0.1675434708595276,0.0061702728271484,-0.3053405582904815
1761235193052944000,0.73094384765625,0.1384384036064148,-0.0435686111450195,-0.2072988450527191
1761235193070982700,0.748982666015625,0.1950875520706176,-0.1815862655639648,-0.2235985398292541
1761235193089014800,0.767014892578125,0.2775765061378479,-0.1618690490722656,-0.2737424373626709
1761235193107059200,0.78505908203125,0.170198380947113,-0.0663566589355468,-0.1449935436248779
1761235193125094000,0.803093994140625,0.1005021929740905,-0.0583467483520507,-0.1757857799530029
1761235193143131100,0.821131103515625,0.1010829210281372,-0.0798501968383789,-0.0440379381179809
1761235193161169000,0.8391689453125,-0.0914537012577056,-0.0215377807617187,-0.0056986212730407
1761235193179206700,0.85720654296875,-0.111538290977478,0.0793123245239257,0.0243105888366699
1761235193197244200,0.875244140625,-0.0559671521186828,-0.0094890594482421,0.0017740726470947
1761235193215281700,0.89328173828125,-0.0191551148891448,0.0067596435546875,5.1736831665e-05
1761235193233319200,0.911319091796875,-0.2214159816503524,0.0992441177368164,0.0636563897132873
1761235193251356400,0.9293564453125,-0.2395649552345276,0.0344791412353515,0.1061868667602539
1761235193269394200,0.947394287109375,-0.1874639391899109,-0.1363172531127929,-0.0170706510543823
1761235193287432700,0.9654326171875,-0.052444577217102,-0.1005926132202148,0.0256341695785522
1761235193305468700,0.98346875,0.0385000109672546,-0.0802040100097656,0.0091879963874816
1761235193339291000,1.017290771484375,-0.0474368929862976,-0.2055740356445312,-0.0300435423851013
1761235193357326800,1.035326904296875,0.0495798587799072,-0.1413478851318359,-0.1535636186599731
1761235193375363000,1.053363037109375,0.0834691524505615,-0.045994758605957,-0.1559358239173889
1761235193393401300,1.0714013671875,0.0793098211288452,0.0076656341552734,-0.0817729830741882
1761235193411438000,1.08943798828125,-0.016156643629074,0.0219936370849609,-0.0875167250633239
1761235193429476600,1.1074765625,0.0317787826061248,0.046147346496582,-0.1019090414047241
1761235193447513600,1.125513671875,0.1144563853740692,-0.0149164199829101,-0.1033861637115478
1761235193465551600,1.143551513671875,0.1185221970081329,-0.0316429138183593,-0.0433907508850097
1761235193483588000,1.161588134765625,0.0371344089508056,-0.0351629257202148,-0.0406853556632995
1761235193501627000,1.179626953125,0.0608879923820495,-0.0941066741943359,-0.0683779716491699
1761235193519663600,1.19766357421875,0.0207449793815612,-0.0810918807983398,-0.0580320358276367
1761235193537701600,1.21570166015625,-0.0601446330547332,-0.0421886444091796,-0.1251065731048584
1761235193555735600,1.233735595703125,0.0352714955806732,-0.0629167556762695,-0.1208870410919189
1761235193573779500,1.251779541015625,0.0517737865447998,-0.0992660522460937,-0.0923460721969604
1761235193591813400,1.2698134765625,-0.01355442404747,-0.0776567459106445,-0.0867325067520141
1761235193609851400,1.287851318359375,-0.0115113258361816,-0.0894060134887695,-0.063349425792694
1761235193627876400,1.30587646484375,0.0066326260566711,-0.0886964797973632,-0.0607240200042724
1761235193645927200,1.32392724609375,-0.005925565958023,-0.0834112167358398,-0.0786060094833374
1761235193663963600,1.341963623046875,0.0187812149524688,-0.0484790802001953,-0.1481262445449829
1761235193682001400,1.36000146484375,0.1002162098884582,-0.0348930358886718,-0.1765792965888977
1761235193700036600,1.37803662109375,0.0616578459739685,0.02459716796875,-0.1395325660705566
1761235193718076400,1.396076416015625,0.0756499767303466,-0.0094890594482421,-0.0841078162193298
1761235193736115000,1.414114990234375,0.122778832912445,-0.0822944641113281,-0.0108553767204284
1761235193754153000,1.432153076171875,0.0984197854995727,-0.0629825592041015,-0.0256212353706359
1761235193772176400,1.45017626953125,-0.0044244825839996,-0.0428056716918945,-0.1243523955345153
1761235193790215700,1.468215576171875,0.0206910073757171,-0.0484905242919921,-0.0696604251861572
1761235193808264000,1.486263916015625,0.0520859956741333,-0.0602788925170898,-0.1160827875137329
1761235193826295300,1.50429541015625,0.0399223566055297,-0.0169229507446289,-0.1570699214935302
1761235193844338400,1.52233837890625,0.0687755346298217,-0.0206966400146484,-0.0796687006950378
1761235193862377000,1.540376953125,0.034622848033905,-0.0799283981323242,-0.0058305859565734
1761235193880404500,1.558404541015625,0.0014483034610748,-0.0242776870727539,-0.0062738060951232
1761235193898451700,1.57645166015625,0.0616662502288818,-0.034952163696289,0.0518445968627929
1761235193916488200,1.59448828125,-0.038532555103302,-0.0374612808227539,-0.0060980319976806
1761235193934527200,1.61252734375,-0.0339373350143432,-0.0485210418701171,-0.0234233140945434
1761235193952563700,1.630563720703125,-0.0131751298904418,-0.0717697143554687,-0.0348523259162902
1761235193970601700,1.648601806640625,0.0150344669818878,-0.0259265899658203,-0.0716015696525573
1761235193988638500,1.666638427734375,-0.0050298571586608,0.0176610946655273,-0.0378146171569824
1761235194006677200,1.68467724609375,-0.0041907727718353,-0.060887336730957,0.0153433084487915
1761235194024713700,1.702713623046875,0.0132000148296356,-0.0700569152832031,0.0090560913085937
1761235194042751700,1.720751708984375,0.0660870969295501,-0.0660419464111328,-0.0429428219795227
1761235194060788200,1.738788330078125,0.024342656135559,0.0112934112548828,-0.1514965891838073
1761235194078827000,1.756826904296875,0.0275795459747314,-0.0252943038940429,-0.0955453515052795
1761235194096863700,1.77486376953125,-0.01630300283432,-0.0433673858642578,-0.0261547565460205
1761235194114901800,1.79290185546875,-0.0339073836803436,-0.0654783248901367,-0.0416153669357299
1761235194132938800,1.810938720703125,0.0081939995288848,-0.0107231140136718,-0.0572826266288757
1761235194150977300,1.828977294921875,0.0449233055114746,-0.0087347030639648,-0.101980447769165
1761235194169013800,1.847013671875,0.0580414235591888,-0.0415191650390625,0.0172346234321594
1761235194187051800,1.8650517578125,-0.0487183332443237,-0.0674114227294921,0.068381130695343
1761235194205088800,1.8830888671875,-0.0880199372768402,-0.0438156127929687,-0.009479284286499
1761235194223124700,1.901124755859375,-0.049038678407669,-0.0232496261596679,-0.0480686426162719
1761235194241166000,1.919166015625,-0.0147304236888885,-0.1350307464599609,-0.0490638613700866
1761235194259201500,1.937201416015625,-0.0118047893047332,-0.090066909790039,-0.0739825367927551
1761235194277238300,1.95523828125,0.0202676355838775,-0.0225934982299804,-0.0621211528778076
1761235194295276500,1.973276611328125,-0.0361836552619934,-0.044966697692871,-0.0413991808891296
1761235194313314000,1.99131396484375,0.0731638073921203,-0.08673095703125,-0.0127379298210144
1761235194331352000,2.00935205078125,0.001750499010086,0.0068168640136718,-0.0555392503738403
1761235194349388500,2.027388427734375,0.0121003985404968,-0.0250701904296875,-0.0284916758537292
1761235194367427300,2.04542724609375,0.0056903064250946,-0.0379238128662109,-0.0516105890274047
1761235194385463600,2.063463623046875,0.0229897797107696,-0.0387201309204101,-0.0994957685470581
1761235194403501800,2.081501708984375,0.0325256884098053,-0.0249204635620117,-0.0920948982238769
1761235194421538800,2.099538818359375,0.0153095424175262,-0.0749006271362304,0.0117928385734558
1761235194439576800,2.117576904296875,0.0310178697109222,-0.1206398010253906,-0.0166756510734558
1761235194457613800,2.13561376953125,0.0658963620662689,-0.041996955871582,-0.1100807785987854
1761235194475651000,2.153651123046875,0.0155224800109863,-0.008397102355957,-0.100552499294281
1761235194493689600,2.171689697265625,-0.0059882998466491,-0.0336265563964843,-0.0748973488807678
1761235194511727600,2.1897275390625,0.0864335000514984,-0.0372400283813476,-0.0517486929893493
1761235194529763800,2.207763916015625,0.0929418206214904,-0.0513372421264648,-0.0572983026504516
1761235194547802000,2.225802001953125,-0.0398726165294647,-0.0226564407348632,-0.0207244157791137
1761235194565837600,2.243837646484375,0.0030438899993896,-0.0605897903442382,-0.0353342294692993
1761235194583878700,2.261878662109375,0.0511175692081451,-0.0383558273315429,-0.002597153186798
1761235194601913900,2.279913818359375,0.0618778765201568,-0.0437030792236328,0.0377947092056274
1761235194619950000,2.2979501953125,0.0665243864059448,-0.0836763381958007,-0.0193445086479187
1761235194637990700,2.31599072265625,0.0424850285053253,-0.0880680084228515,-0.0943673849105835
1761235194656027400,2.33402734375,0.0719993114471435,-0.1021146774291992,-0.0959384441375732
1761235194674064000,2.35206396484375,0.1143468022346496,-0.0487594604492187,-0.0691467523574829
1761235194692102100,2.37010205078125,0.0333684384822845,0.0044631958007812,-0.0232969522476196
1761235194710135000,2.388135009765625,-0.0898047387599945,-0.0006914138793945,-0.0996345877647399
1761235194728177400,2.406177490234375,0.0170263350009918,-0.0675764083862304,-0.0851110816001892
1761235194746214100,2.424214111328125,0.0874312818050384,-0.0142860412597656,-0.0781466960906982
1761235194764252000,2.442251953125,0.0279227793216705,-0.0048837661743164,-0.0407950282096862
1761235194782289000,2.460288818359375,0.0595698356628418,-0.0898456573486328,-0.011877954006195
1761235194800315600,2.478315673828125,0.0308859646320343,-0.0179576873779296,-0.0186681151390075
1761235194818364200,2.4963642578125,0.0432609617710113,-0.0206899642944335,-0.0030722022056579
1761235194836402400,2.51440234375,0.040833443403244,-0.0475282669067382,-0.0371872782707214
1761235194854439000,2.53243896484375,0.048734426498413,-0.1028985977172851,-0.0561532378196716
1761235194872477700,2.550477783203125,0.0392048954963684,-0.0585002899169921,-0.0970427989959716
1761235194890506200,2.56850634765625,0.003129631280899,-0.0553560256958007,-0.0867550373077392
1761235194908555000,2.586554931640625,0.0258468091487884,-0.0788373947143554,-0.1109732985496521
1761235194926588700,2.604588623046875,0.0574816167354583,-0.0362424850463867,-0.0484572052955627
1761235194944611000,2.622611083984375,0.1057309508323669,-0.047795295715332,0.0293401479721069
1761235194962664000,2.640663818359375,0.0793534219264984,-0.0204172134399414,0.0377169251441955
1761235194980702500,2.658702392578125,-0.0298450589179992,-0.0300874710083007,-0.0737174749374389
1761235194998739200,2.6767392578125,-0.0565458834171295,-0.0607194900512695,-0.1727775931358337
1761235195016777500,2.694777587890625,0.0290859341621398,-0.0077600479125976,-0.1620722413063049
1761235195034814200,2.712814208984375,0.0881332457065582,-0.0224714279174804,-0.0629106163978576
1761235195052852200,2.730852294921875,0.1141844093799591,-0.0110654830932617,-0.0146132111549377
1761235195070889000,2.748888916015625,0.0555423200130462,-0.0839385986328125,0.0437409877777099
1761235195088927500,2.766927490234375,0.0118424296379089,-0.1320409774780273,-0.1031127572059631
1761235195106968000,2.784968017578125,0.0244669318199157,-0.0819578170776367,-0.1772413849830627
1761235195124990500,2.802990478515625,0.0821568667888641,0.0031061172485351,-0.1055412292480468
1761235195143038700,2.821038818359375,0.0732045173645019,-0.0257987976074218,-0.0045599937438964
1761235195161077500,2.839077392578125,0.0189214646816253,-0.0559663772583007,-0.0458886623382568
1761235195179114200,2.8571142578125,0.0496770143508911,-0.0752239227294921,-0.0549007654190063
1761235195197152300,2.87515234375,-0.0046122670173645,-0.0013675689697265,-0.080062985420227
1761235195215189000,2.89318896484375,0.0007232427597045,0.0043468475341796,-0.0549709200859069
1761235195233227500,2.9112275390625,0.0486608445644378,-0.0560255050659179,-0.0206162333488464
1761235195251264500,2.929264404296875,0.070378690958023,-0.0735511779785156,0.0060213804244995
1761235195269302300,2.94730224609375,0.0304345786571502,-0.0227956771850585,-0.0389195680618286
1761235195287339000,2.965339111328125,0.0664328634738922,-0.0476341247558593,-0.0834294557571411
1761235195305377300,2.983377197265625,0.0368220508098602,-0.0749168395996093,-0.0950212478637695
1761235195323414000,3.0014140625,0.0069495737552642,-0.0507049560546875,-0.0965178608894348
1761235195341452300,3.019452392578125,0.0235094428062438,-0.0161066055297851,-0.1150009632110595
1761235195359489000,3.037489013671875,0.092667132616043,-0.0452518463134765,-0.0797944068908691
1761235195377527600,3.055527587890625,0.0800985097885131,-0.0514707565307617,-0.0183647871017456
1761235195395564000,3.07356396484375,0.0557048022747039,-0.069000244140625,-0.0284246206283569
1761235195413602000,3.09160205078125,0.0139205455780029,-0.0585126876831054,-0.0375311374664306
1761235195431638800,3.109638671875,0.0946369171142578,-0.0347814559936523,-0.0518780946731567
1761235195449677800,3.127677734375,-0.0094103217124938,0.0472307205200195,-0.0425768494606018
1761235195467714300,3.14571435546875,-0.0407725870609283,-0.0317134857177734,-0.0363783240318298
1761235195485751300,3.163751220703125,0.0444627702236175,-0.1028947830200195,-0.0276318192481994
1761235195503790300,3.181790283203125,0.026308536529541,-0.0521516799926757,-0.0167900919914245
1761235195521827300,3.199827392578125,-0.0032953023910522,-0.0598402023315429,-0.077768862247467
1761235195539861800,3.21786181640625,0.000953197479248,-0.0130891799926757,-0.1209579110145568
1761235195557906400,3.235906494140625,0.059683471918106,-0.0058670043945312,-0.0830755233764648
1761235195575937800,3.253937744140625,0.0338485836982727,-0.0573902130126953,-0.0174598097801208
1761235195593977300,3.271977294921875,0.075627714395523,-0.0803470611572265,0.0120202302932739
1761235195612017400,3.290017333984375,-0.0329019427299499,0.0024375915527343,-0.0646122694015502
1761235195630039000,3.3080390625,0.0169954001903533,0.0082435607910156,-0.0536110997200012
1761235195648079000,3.3260791015625,0.0280907750129699,-0.0602483749389648,-0.0750861167907714
1761235195666127600,3.344127685546875,-0.0174406170845031,-0.0094928741455078,-0.0777399539947509
1761235195684164000,3.3621640625,-0.0273312926292419,-0.0487041473388671,-0.0504528880119323
1761235195702202400,3.380202392578125,0.0531781017780303,-0.0909061431884765,0.0201178789138793
1761235195720236800,3.39823681640625,0.0671091377735138,-0.1206445693969726,-0.0392793416976928
1761235195738276900,3.41627685546875,-0.0365790426731109,-0.0429344177246093,-0.0968485474586486
1761235195756314400,3.434314453125,-0.0505807101726532,-0.0298109054565429,-0.0771445631980896
1761235195774352600,3.4523525390625,0.0315616726875305,-0.0366764068603515,-0.0382011532783508
1761235195792387300,3.47038720703125,0.0348354876041412,-0.0227813720703125,-0.0376302599906921
1761235195810427600,3.488427734375,0.0605400204658508,-0.0552730560302734,-0.0249545574188232
1761235195828464400,3.50646435546875,0.0259357392787933,0.0099010467529296,-0.0211281180381774
1761235195846502400,3.52450244140625,0.0145305097103118,-0.0396509170532226,-0.0329619050025939
1761235195864524300,3.542524169921875,-0.023061990737915,-0.0582284927368164,-0.0726421475410461
1761235195882577400,3.560577392578125,-0.0070688724517822,-0.0561885833740234,-0.070905327796936
1761235195900614400,3.578614501953125,0.0513204634189605,-0.110818862915039,-0.0574223399162292
1761235195918652400,3.59665234375,0.0233709812164306,-0.1055135726928711,-0.0843380093574523
1761235195936689200,3.614689208984375,0.0258455276489257,-0.0046901702880859,-0.0488449335098266
1761235195954728000,3.63272802734375,0.0242030918598175,-0.0446243286132812,-0.1336107850074768
1761235195972764400,3.650764404296875,0.0060017108917236,-0.0336151123046875,-0.0864233970642089
1761235195990802400,3.668802490234375,0.0381980240345001,-0.0415363311767578,-0.0810133218765258
1761235196008839400,3.68683935546875,0.0769606530666351,-0.0611400604248046,-0.0321320295333862
1761235196026877700,3.704877685546875,0.0668861269950866,-0.0544366836547851,-0.0265954732894897
1761235196044914400,3.72291455078125,-0.0209684073925018,-0.0236005783081054,-0.0742034912109375
1761235196062952400,3.740952392578125,0.0049377679824829,-0.0182857513427734,-0.0938441157341003
1761235196080989200,3.7589892578125,0.0912262201309204,-0.0457820892333984,-0.0624884963035583
1761235196099027500,3.77702734375,0.0563262999057769,-0.038151741027832,-0.0804126858711242
1761235196117064400,3.795064453125,0.0578172802925109,-0.0420475006103515,0.0161965489387512
1761235196135102700,3.813102783203125,0.0498465001583099,-0.1005029678344726,-0.015141487121582
1761235196153139200,3.83113916015625,-0.0126892924308776,-0.0446729660034179,-0.0599884390830993
1761235196171178000,3.849177978515625,-0.0194274485111236,-0.0431709289550781,-0.1309360265731811
1761235196189213400,3.86721337890625,0.0062877833843231,-0.0390644073486328,-0.0877958536148071
1761235196207253500,3.88525341796875,0.074061244726181,-0.0656709671020507,-0.0347604155540466
1761235196225289200,3.903289306640625,0.007494181394577,-0.0404539108276367,-0.0285379290580749
1761235196243327700,3.92132763671875,0.0338019132614135,-0.0362110137939453,-0.0505498647689819
1761235196261364200,3.9393642578125,3.4749507904e-05,-0.0215644836425781,-0.0703437328338623
1761235196279402500,3.957402587890625,-0.0060585141181945,-0.0153589248657226,-0.0202520489692688
1761235196297427500,3.975427490234375,0.0596650838851928,-0.030461311340332,-0.0327207446098327
1761235196315478000,3.99347802734375,0.0206109881401062,-0.0626077651977539,-0.0177671313285827
1761235196333514800,4.0115146484375,0.0294049084186553,-0.085362434387207,-0.0194483399391174
1761235196351552800,4.029552734375,0.0125885605812072,-0.0818309783935546,-0.0693305134773254
1761235196369589500,4.047589599609375,0.0074254870414733,-0.0773162841796875,-0.0887523889541626
1761235196387624700,4.065624755859375,0.0332125127315521,-0.0390138626098632,-0.0809594392776489
1761235196405666800,4.083666748046875,0.0661909282207489,-0.0140752792358398,-0.0381630063056945
1761235196423703600,4.10170361328125,0.0347859859466552,-0.0347156524658203,-0.0329878330230712
1761235196441739000,4.119739013671875,0.0118889510631561,-0.0272302627563476,0.0324848890304565
1761235196459769900,4.137769775390625,0.0254008471965789,-0.0562849044799804,-0.0331058502197265
1761235196477816000,4.155816162109375,0.0360372960567474,-0.0402584075927734,-0.0568211674690246
1761235196495852800,4.173852783203125,0.0895630419254303,-0.0612754821777343,-0.0618731379508972
1761235196513889800,4.191889892578125,0.046432077884674,-0.0361185073852539,-0.0988814830780029
1761235196531927800,4.209927734375,0.0093481242656707,-0.006270408630371,-0.0773714184761047
1761235196549964500,4.227964599609375,0.0345166623592376,-0.0487518310546875,-0.0261768698692321
1761235196568002300,4.246002197265625,0.0515530407428741,-0.0753555297851562,-0.0212804079055786
1761235196586039300,4.264039306640625,0.0673519968986511,-0.0401983261108398,-0.0018308758735656
1761235196604077800,4.282077880859375,0.1049990653991699,-0.0691480636596679,-0.0537002682685852
1761235196622114800,4.30011474609375,0.0784384608268737,-0.0430412292480468,-0.0710965394973754
1761235196640149500,4.3181494140625,0.0288589000701904,-0.0293226242065429,-0.1053459644317627
1761235196658189600,4.336189453125,0.0038390755653381,-0.0223655700683593,-0.0652268528938293
1761235196676228000,4.35422802734375,0.0522807836532592,-0.0449037551879882,-0.0387990474700927
1761235196694264600,4.3722646484375,0.0308261811733245,-0.0324306488037109,-0.0334314107894897
1761235196712302600,4.390302490234375,-0.0075275301933288,-0.0602922439575195,-0.0682873725891113
1761235196730339000,4.408339111328125,-0.0160756409168243,-0.0795516967773437,-0.0276532173156738
1761235196748377600,4.426377685546875,-0.0087912678718566,-0.1038923263549804,-0.0054576396942138
1761235196766414300,4.444414306640625,-0.0228506028652191,-0.0452089309692382,-0.022079586982727
1761235196784436200,4.462436279296875,0.0118902027606964,-0.042363166809082,-0.0318061709403991
1761235196802489300,4.4804892578125,-0.0672319531440734,-0.027968406677246,-0.0767019987106323
1761235196820527900,4.49852783203125,-0.0191697180271148,-0.0398368835449218,-0.1000723242759704
1761235196838561800,4.516561767578125,-0.0304065942764282,0.0092592239379882,-0.0658527016639709
1761235196856604000,4.53460400390625,0.0098395645618438,-0.0232448577880859,0.0011757016181945
1761235196874641700,4.5526416015625,-0.0009949505329132,-0.0353288650512695,0.0161378979682922
1761235196892678000,4.570677978515625,-0.0296781361103057,-0.0688533782958984,-0.0450120568275451
1761235196910714600,4.588714599609375,0.0178342163562774,-0.0428066253662109,-0.0911431312561035
1761235196928752400,4.60675244140625,0.0699034333229065,0.0055398941040039,-0.0545946955680847
1761235196946789000,4.6247890625,-0.0050829052925109,-0.0068178176879882,-0.0298920273780822
1761235196964819500,4.6428193359375,-0.0023184418678283,-0.0502519607543945,-0.0463605523109436
1761235196982864600,4.66086474609375,0.0385713577270507,-0.0888690948486328,-0.046636164188385
1761235197000902700,4.678902587890625,0.0141118466854095,-0.0892543792724609,-0.0010563731193542
1761235197018939400,4.696939453125,-0.0122414827346801,-0.0250825881958007,-0.0376080274581909
1761235197036977700,4.714977783203125,0.0019388496875762,-0.0402231216430664,-0.0835515260696411
1761235197055015000,4.733014892578125,-0.0128902196884155,-0.074345588684082,-0.1125417947769165
1761235197073053000,4.751052978515625,-0.0037972927093505,-0.0415887832641601,-0.0960810184478759
1761235197091089400,4.76908935546875,0.0469757914543151,-0.0030603408813476,-0.0367486476898193
1761235197109128200,4.787128173828125,0.0698888003826141,-0.0366315841674804,0.0367507934570312
1761235197127163000,4.805162841796875,-0.0022172927856445,-0.0247669219970703,-0.0011992454528808
1761235197145203000,4.823202880859375,-0.0069557726383209,-0.0253305435180664,-0.0620143413543701
1761235197163239400,4.841239501953125,-0.0496382713317871,-0.0229864120483398,-0.0974498391151428
1761235197181278000,4.85927783203125,-0.0158921182155609,-0.0539226531982421,-0.0703352093696594
1761235197199314400,4.877314453125,0.0369342565536499,-0.098855972290039,0.033023715019226
1761235197217352700,4.895352783203125,-0.0263816118240356,-0.0654554367065429,-0.0025237798690795
1761235197235389200,4.91338916015625,-0.0044732689857482,-0.0788936614990234,-0.0884750485420227
1761235197253428000,4.931427978515625,-0.0281956195831298,-0.0181760787963867,-0.0932569503784179
1761235197271465000,4.94946484375,0.017620712518692,-0.026921272277832,-0.0714544653892517
1761235197289503000,4.9675029296875,0.0171469449996948,-0.0108470916748046,-0.056750476360321
1761235197307539500,4.98553955078125,0.0313206315040588,-0.0290613174438476,-0.0037976503372192
1761235197325578200,5.003578125,-0.0092345178127288,-0.0656023025512695,0.0239131450653076
1761235197343613200,5.02161328125,-0.0069624781608581,-0.0652265548706054,-0.0346369743347168
1761235197361652000,5.03965185546875,0.0472737848758697,-0.043623924255371,-0.038446307182312
1761235197379691500,5.05769140625,0.0444728732109069,-0.0483865737915039,-0.0374541282653808
1761235197397728000,5.07572802734375,0.0200611054897308,-0.0049505233764648,-0.098138153553009
