time,seconds_elapsed,z,y,x
1761235043870057200,0.13605712890625,-0.0290160998702049,-0.0083993971347808,0.0598647929728031
1761235043888063500,0.1540634765625,-0.0074830991216003,0.0103847095742821,0.0455094613134861
1761235043906102800,0.172102783203125,-0.0114537235349416,-0.0088575463742017,0.0474947728216648
1761235043924137500,0.190137451171875,-0.0105374250560998,-0.0224492978304624,0.005192354787141
1761235043942175500,0.208175537109375,-0.0093156946823,-0.0250454749912023,-0.0167987942695617
1761235043960213200,0.226213134765625,-0.0143553335219621,-0.019089538604021,-0.0024434609804302
1761235043978251000,0.2442509765625,-0.007177666760981,-0.0100792767480015,0.0099265603348612
1761235043996288500,0.26228857421875,-0.0030543261673301,-0.0022907445672899,0.0123700210824608
1761235044014326000,0.280325927734375,-0.0261144898831844,-0.0083993971347808,0.0253509078174829
1761235044032360700,0.298360595703125,-0.0259617734700441,-0.0010690141934901,0.0135917514562606
1761235044050404600,0.316404541015625,-0.0032070425804704,0.0177150927484035,0.0320704244077205
1761235044068439000,0.33443896484375,-0.0065668015740811,0.0230601634830236,0.0584903471171855
1761235044086464800,0.35246484375,-0.0113010071218013,0.051312681287527,0.0555887371301651
1761235044104503000,0.3705029296875,-0.0355829000473022,0.0876591652631759,0.0615446716547012
1761235044122540300,0.388540283203125,-0.0759000033140182,0.0870482996106147,0.0678060427308082
1761235044140578600,0.40657861328125,-0.0693332031369209,0.0601702257990837,0.0503963828086853
1761235044158627800,0.4246279296875,-0.0537561401724815,0.0855211317539215,0.0453567430377006
1761235044176665000,0.4426650390625,-0.0655152946710586,0.1354593634605407,0.0933096632361412
1761235044194702000,0.4607021484375,-0.0629191175103187,0.1748601794242859,0.1398881375789642
1761235044212741400,0.478741455078125,-0.0404698215425014,0.1873829066753387,0.1372919678688049
1761235044230778000,0.496778076171875,-0.0503963828086853,0.1679879426956176,0.1134682223200798
1761235044248815900,0.51481591796875,-0.0685696229338646,0.1470658034086227,0.1101084575057029
1761235044266853600,0.532853515625,-0.0497855171561241,0.1453859210014343,0.1032362282276153
1761235044284891400,0.550891357421875,-0.0337503030896186,0.1377501189708709,0.1029307916760444
1761235044302929200,0.56892919921875,-0.0397062413394451,0.111024759709835,0.104763388633728
1761235044320966100,0.586966064453125,-0.0607810914516449,0.0842994004487991,0.0971275717020034
1761235044339004200,0.605004150390625,-0.0670424625277519,0.0297796800732612,0.0800233483314514
1761235044357041700,0.623041748046875,-0.0384845100343227,-0.0303905457258224,0.061391957104206
1761235044375079200,0.6410791015625,-0.0166460778564214,-0.1099557429552078,0.0337503030896186
1761235044393117000,0.659116943359375,-0.0216857157647609,-0.2031126916408538,-0.0148134818300604
1761235044411154700,0.67715478515625,-0.0146607663482427,-0.25641068816185,-0.0555887371301651
1761235044429188900,0.69518896484375,-0.0019853119738399,-0.2594650089740753,-0.058184914290905
1761235044447230200,0.713230224609375,0.0012217304902151,-0.23273965716362,-0.0239764600992202
1761235044465268000,0.73126806640625,0.0009162978967651,-0.2124283909797668,0.0171042270958423
1761235044483305500,0.749305419921875,0.0018325957935303,-0.1973094791173935,0.0247400421649217
1761235044501339400,0.76733935546875,0.0271835029125213,-0.1843285858631134,-0.0041233403608202
1761235044519384800,0.785384765625,0.0253509078174829,-0.1634064465761184,-0.0226020142436027
1761235044537417500,0.80341748046875,0.0070249503478407,-0.1198823079466819,0.0106901414692401
1761235044555457000,0.82145703125,0.0042760567739605,-0.0891863256692886,0.0494800843298435
1761235044573493500,0.839493408203125,-0.0036651915870606,-0.0688750594854354,0.0337503030896186
1761235044591531000,0.857531005859375,-0.0038179077673703,-0.0471893399953842,0.0354301854968071
1761235044609557500,0.8755576171875,0.0030543261673301,-0.0290160998702049,0.0383317954838275
1761235044627606500,0.8936064453125,0.0177150927484035,-0.0256563406437635,0.0300851128995418
1761235044645644300,0.911644287109375,0.0226020142436027,-0.0219911485910415,0.0044287731871008
1761235044663682000,0.92968212890625,0.0183259565383195,-0.0337503030896186,-0.0032070425804704
1761235044681719800,0.9477197265625,-0.0025961773935705,-0.0542142912745475,-0.0113010071218013
1761235044699757600,0.965757568359375,-0.0039706239476799,-0.0746782794594764,-0.0253509078174829
1761235044717795300,0.98379541015625,0.0074830991216003,-0.0986547395586967,-0.0398589558899402
1761235044735832800,1.001832763671875,-0.0035124751739203,-0.104763388633728,-0.0419969856739044
1761235044753858600,1.019858642578125,-0.0058032199740409,-0.1046106740832328,-0.0140499006956815
1761235044771896000,1.03789599609375,0.0310014113783836,-0.1058324053883552,-0.0070249503478407
1761235044789945300,1.0559453125,0.0659734457731247,-0.1056796908378601,-0.0097738439217209
1761235044807981000,1.07398095703125,0.0552833043038845,-0.1267545372247696,-0.0238237436860799
1761235044826023400,1.0920234375,0.0471893399953842,-0.1612684279680252,-0.042302418500185
1761235044844058600,1.11005859375,0.0484110713005065,-0.1875356286764145,-0.0516181141138076
1761235044862096100,1.12809619140625,0.0337503030896186,-0.195629596710205,-0.0598647929728031
1761235044880134000,1.1461337890625,0.0384845100343227,-0.1679879426956176,-0.0627664029598236
1761235044898172000,1.164171875,0.0436768643558025,-0.1107193231582641,-0.0502436682581901
1761235044916209400,1.18220947265625,0.0280998013913631,-0.0600175112485885,-0.0203112699091434
1761235044934247000,1.200246826171875,0.0073303831741213,-0.041233405470848,0.0004581489483825
1761235044952285000,1.218284912109375,0.0021380283869802,-0.0328340083360672,0.0073303831741213
1761235044970322400,1.236322509765625,-0.0039706239476799,-0.0290160998702049,-0.0177150927484035
1761235044988359700,1.254359619140625,-0.0189368221908807,-0.0117591563612222,-0.0247400421649217
1761235045006397700,1.272397705078125,-0.009010262787342,0.026419922709465,-0.0135917514562606
1761235045024435000,1.29043505859375,-0.0125227374956011,0.0569631829857826,0.0093156946823
1761235045042463700,1.308463623046875,-0.0070249503478407,0.0720821022987365,0.0149661982432007
1761235045060510500,1.326510498046875,-0.0021380283869802,0.0722348168492317,-0.00335975876078
1761235045078547700,1.344547607421875,0.0163406450301408,0.0971275717020034,-0.0142026171088218
1761235045096586000,1.3625859375,0.0004581489483825,0.1224784851074218,-0.0198531206697225
1761235045114622700,1.380622802734375,-0.0313068442046642,0.1061378344893455,-0.0448985956609249
1761235045132650800,1.398650634765625,-0.0444404482841491,0.0708603709936142,-0.0536034256219863
1761235045150698800,1.41669873046875,-0.022754730656743,0.0650571510195732,-0.0152716310694813
1761235045168736300,1.434736328125,0.007177666760981,0.0633772686123848,-0.0027488935738801
1761235045186774800,1.45277490234375,0.0146607663482427,0.0452040284872055,-0.0123700210824608
1761235045204811800,1.470811767578125,0.0085521135479211,-0.001527163083665,-0.0233655963093042
1761235045222849500,1.488849609375,0.0137444678694009,-0.0279470849782228,-0.0334448739886283
1761235045240887000,1.506886962890625,0.009010262787342,-0.0329867228865623,-0.0305432621389627
1761235045258924500,1.524924560546875,0.0157297793775796,-0.0120645882561802,-0.0193949714303016
1761235045276962000,1.542962158203125,0.0172569435089826,0.0125227374956011,-0.0012217304902151
1761235045295000300,1.561000244140625,0.0181732401251792,0.0259617734700441,0.0143553335219621
1761235045313037800,1.579037841796875,0.0187841057777404,0.0319177098572254,-0.0041233403608202
1761235045331075600,1.59707568359375,0.0006108652451075,0.0271835029125213,-0.0166460778564214
1761235045349118000,1.615117919921875,-0.0027488935738801,0.0213802829384803,-0.0219911485910415
1761235045367150800,1.63315087890625,-0.0030543261673301,0.0293215326964855,-0.0236710291355848
1761235045385188600,1.651188720703125,0.0012217304902151,0.0453567430377006,-0.0226020142436027
1761235045403226000,1.66922607421875,-0.0148134818300604,0.0539088584482669,-0.0332921557128429
1761235045421264000,1.687263916015625,-0.0360410511493682,0.0239764600992202,-0.0600175112485885
1761235045439289600,1.70528955078125,-0.0403171069920063,0.0038179077673703,-0.0308486949652433
1761235045457339100,1.723339111328125,-0.0288633834570646,-0.0035124751739203,-0.0253509078174829
1761235045475377000,1.741376953125,0.0021380283869802,-0.0224492978304624,-0.0335975885391235
1761235045493414400,1.759414306640625,0.0117591563612222,-0.0274889357388019,-0.0337503030896186
1761235045511452000,1.777451904296875,-0.001527163083665,-0.0226020142436027,-0.0233655963093042
1761235045529489400,1.795489501953125,-0.0044287731871008,-0.0204639863222837,0.0019853119738399
1761235045547527200,1.813527099609375,0.0006108652451075,-0.0134390350431203,-0.0062613687478005
1761235045565565000,1.83156494140625,-0.0096211275085806,-0.0186313893646001,-0.0082466807216405
1761235045583602400,1.8496025390625,-0.0103847095742821,-0.0083993971347808,-0.0065668015740811
1761235045601640400,1.867640380859375,-0.009010262787342,0.0114537235349416,-0.0123700210824608
1761235045619678200,1.88567822265625,-0.0171042270958423,0.0311541277915239,0.0010690141934901
1761235045637715500,1.903715576171875,-0.0218384321779012,0.0277943685650825,0.0137444678694009
1761235045655753500,1.92175341796875,-0.0094684110954403,0.012980886735022,0.0036651915870606
1761235045673791000,1.939791015625,0.0029016099870204,0.0025961773935705,-0.0083993971347808
1761235045691828500,1.957828369140625,0.0006108652451075,-0.007177666760981,-0.0238237436860799
1761235045709866000,1.975865966796875,-0.0134390350431203,-0.0070249503478407,-0.0152716310694813
1761235045727899400,1.9938994140625,-0.0297796800732612,-0.0134390350431203,-0.0154243474826216
1761235045745945300,2.0119453125,-0.0397062413394451,-0.0459676086902618,-0.0242818929255008
1761235045763979300,2.029979248046875,-0.0308486949652433,-0.0655152946710586,-0.0300851128995418
1761235045782016800,2.048016845703125,-0.0193949714303016,-0.070249505341053,-0.0363464802503585
1761235045800054800,2.0660546875,-0.0189368221908807,-0.0557414554059505,-0.0287106670439243
1761235045818089500,2.08408935546875,-0.0137444678694009,-0.0487165041267871,-0.0113010071218013
1761235045836129800,2.1021298828125,0.0054977871477603,-0.0448985956609249,0.0035124751739203
1761235045854170600,2.120170654296875,0.0105374250560998,-0.0560468845069408,0.0171042270958423
1761235045872204500,2.13820458984375,0.0074830991216003,-0.0476474873721599,0.0012217304902151
1761235045890243300,2.156243408203125,0.0022907445672899,-0.0395535230636596,-0.0019853119738399
1761235045908280000,2.174280029296875,0.0006108652451075,-0.0297796800732612,-0.0029016099870204
1761235045926317800,2.19231787109375,0.0067195175215601,-0.0204639863222837,0.0042760567739605
1761235045944355600,2.21035546875,0.0178678091615438,-0.0009162978967651,0.0146607663482427
1761235045962393600,2.2283935546875,0.016951510682702,0.0116064399480819,0.009010262787342
1761235045980431000,2.24643115234375,0.0187841057777404,0.0296269636601209,0.0059559359215199
1761235045998468900,2.26446875,0.0097738439217209,0.0467311926186084,0.0068722339347004
1761235046016506400,2.28250634765625,0.00534507073462,0.0416915528476238,0.007177666760981
1761235046034543900,2.3005439453125,0.0082466807216405,0.0438295826315879,0.0076358155347406
1761235046052570400,2.3185703125,0.0154243474826216,0.0459676086902618,0.0135917514562606
1761235046070619000,2.336618896484375,0.0138971842825412,0.0452040284872055,0.0076358155347406
1761235046088657200,2.3546572265625,0.0148134818300604,0.0537561401724815,0.0164933614432811
1761235046106680000,2.37268017578125,0.024892758578062,0.0419969856739044,0.030695978552103
1761235046124731400,2.3907314453125,0.0221438650041818,0.0267253536731004,0.00167987938039
1761235046142767600,2.408767578125,0.0042760567739605,0.0218384321779012,-0.0082466807216405
1761235046160810800,2.426810791015625,0.0097738439217209,0.0320704244077205,0.0047342055477201
1761235046178845000,2.444844970703125,0.0100792767480015,0.0433714315295219,0.0054977871477603
1761235046196882700,2.462882568359375,0.0079412478953599,0.0426078513264656,0.0183259565383195
1761235046214919000,2.4809189453125,0.0068722339347004,0.0317649915814399,0.0106901414692401
1761235046232959500,2.49895947265625,0.0032070425804704,0.0134390350431203,0.0018325957935303
1761235046250996200,2.516996337890625,0.0042760567739605,-0.0036651915870606,-0.0018325957935303
1761235046269033200,2.535033203125,0.0080939643085002,-0.0108428578823804,0.0003054326225537
1761235046287068200,2.553068115234375,0.0070249503478407,-0.00534507073462,0.0106901414692401
1761235046305111600,2.571111572265625,0.0096211275085806,0.0,0.0125227374956011
1761235046323146200,2.589146240234375,0.0067195175215601,0.00167987938039,0.0070249503478407
1761235046341184000,2.60718408203125,-0.0103847095742821,0.0001527163112768,0.0134390350431203
1761235046359218000,2.625218017578125,-0.0077885319478809,-0.0054977871477603,0.0122173046693205
1761235046377259000,2.643259033203125,0.0044287731871008,-0.0065668015740811,0.011148290708661
1761235046395296800,2.661296875,-0.0027488935738801,-0.0062613687478005,0.012980886735022
1761235046413334300,2.679334228515625,-0.00335975876078,-0.0003054326225537,0.0149661982432007
1761235046431372500,2.69737255859375,0.0004581489483825,-0.00137444678694,0.0180205255746841
1761235046449410000,2.71541015625,-0.0029016099870204,-0.0058032199740409,0.0113010071218013
1761235046467447300,2.733447265625,-0.0036651915870606,-0.0148134818300604,0.0177150927484035
1761235046485485000,2.751485107421875,0.0128281703218817,-0.0193949714303016,0.0048869219608604
1761235046503522800,2.769522705078125,0.016951510682702,-0.0109955742955207,-0.0006108652451075
1761235046521560800,2.787560791015625,0.0056505035609006,-0.0070249503478407,0.0083993971347808
1761235046539592400,2.805592529296875,0.0022907445672899,-0.00534507073462,-0.00167987938039
1761235046557636600,2.82363671875,-0.001527163083665,0.0123700210824608,0.0032070425804704
1761235046575673000,2.841673095703125,-0.001527163083665,0.0329867228865623,0.022754730656743
1761235046593716200,2.85971630859375,0.00167987938039,0.0310014113783836,0.0216857157647609
1761235046611734800,2.87773486328125,-0.0117591563612222,-0.0001527163112768,-0.0021380283869802
1761235046629786000,2.8957861328125,-0.0145080499351024,-0.026419922709465,-0.0041233403608202
1761235046647824100,2.91382421875,0.0022907445672899,-0.0244346093386411,-0.0041233403608202
1761235046665862000,2.93186181640625,-0.0054977871477603,-0.0064140851609408,0.0125227374956011
1761235046683899400,2.9498994140625,-0.0154243474826216,0.0138971842825412,0.0421497002243995
1761235046701937200,2.967937255859375,-0.0216857157647609,0.0114537235349416,0.0403171069920063
1761235046719974700,2.985974609375,-0.0215329993516206,-0.0106901414692401,0.0195476878434419
1761235046738009600,3.004009521484375,-0.015118914656341,-0.0346666015684604,0.0009162978967651
1761235046756053000,3.022052978515625,-0.0222965814173221,-0.0505490973591804,-0.0054977871477603
1761235046774077000,3.040076904296875,-0.0311541277915239,-0.058184914290905,0.0032070425804704
1761235046792125400,3.05812548828125,-0.0187841057777404,-0.0384845100343227,0.0054977871477603
1761235046810159400,3.076159423828125,-0.0135917514562606,-0.0299323964864015,0.0187841057777404
1761235046828204000,3.0942041015625,-0.0262672062963247,-0.0358883328735828,0.0113010071218013
1761235046846238000,3.112238037109375,-0.0305432621389627,-0.0459676086902618,-0.0100792767480015
1761235046864276000,3.13027587890625,-0.0113010071218013,-0.0371100641787052,-0.0100792767480015
1761235046882313200,3.148313232421875,-0.0058032199740409,-0.0335975885391235,0.0088575463742017
1761235046900351200,3.166351318359375,0.0039706239476799,-0.0337503030896186,0.0134390350431203
1761235046918388700,3.184388671875,0.0184786729514598,-0.0430659987032413,0.0041233403608202
1761235046936426500,3.202426513671875,0.0083993971347808,-0.0453567430377006,0.0073303831741213
1761235046954464300,3.22046435546875,-0.0117591563612222,-0.0339030213654041,0.0134390350431203
1761235046972489700,3.23848974609375,-0.0149661982432007,-0.0238237436860799,0.0197004042565822
1761235046990539000,3.2565390625,-0.0096211275085806,-0.022754730656743,0.0140499006956815
1761235047008577300,3.274577392578125,-0.0073303831741213,-0.0209221355617046,0.0047342055477201
1761235047026614300,3.2926142578125,-0.0044287731871008,-0.020616702735424,0.0038179077673703
1761235047044651300,3.3106513671875,-0.0030543261673301,-0.0161879286170005,0.0019853119738399
1761235047062692600,3.328692626953125,-0.0102319931611418,-0.0079412478953599,-0.00167987938039
1761235047080715000,3.346715087890625,-0.0105374250560998,-0.0062613687478005,-0.0027488935738801
1761235047098754300,3.36475439453125,-0.0073303831741213,-0.0054977871477603,-0.0073303831741213
1761235047116803000,3.382802978515625,-0.0138971842825412,0.0009162978967651,-0.0082466807216405
1761235047134840300,3.40084033203125,-0.0114537235349416,0.0180205255746841,0.0035124751739203
1761235047152875300,3.418875244140625,-0.0143553335219621,0.034972034394741,0.009010262787342
1761235047170916000,3.436916015625,-0.0138971842825412,0.0421497002243995,0.0048869219608604
1761235047188956200,3.4549560546875,-0.0082466807216405,0.050854530185461,0.0155770638957619
1761235047206989300,3.4729892578125,-0.0032070425804704,0.0345138870179653,0.0255036242306232
1761235047225030400,3.491030517578125,-0.001527163083665,0.0210748501121997,-0.0067195175215601
1761235047243066400,3.50906640625,-0.0189368221908807,0.0096211275085806,-0.001527163083665
1761235047261104000,3.527104248046875,-0.0175623763352632,0.0186313893646001,0.0143553335219621
1761235047279141000,3.54514111328125,-0.0074830991216003,0.0335975885391235,0.0083993971347808
1761235047297179400,3.563179443359375,-0.0032070425804704,0.0413861200213432,0.0200058370828628
1761235047315217000,3.581216796875,-0.0059559359215199,0.0435241498053073,0.0145080499351024
1761235047333254700,3.599254638671875,-0.015118914656341,0.0216857157647609,0.0083993971347808
1761235047351292200,3.617292236328125,-0.0183259565383195,-0.0029016099870204,0.0039706239476799
1761235047369326600,3.63532666015625,-0.0080939643085002,-0.0123700210824608,-0.0025961773935705
1761235047387366100,3.6533662109375,0.0003054326225537,-0.0018325957935303,0.0004581489483825
1761235047405405200,3.6714052734375,0.00137444678694,0.01328631862998,0.0143553335219621
1761235047423443000,3.68944287109375,-0.0088575463742017,0.0117591563612222,0.0137444678694009
1761235047441469700,3.7074697265625,-0.0167987942695617,-0.0001527163112768,-0.0021380283869802
1761235047459518500,3.7255185546875,-0.0076358155347406,0.0082466807216405,0.0001527163112768
1761235047477556000,3.743555908203125,-0.0082466807216405,0.0346666015684604,0.0102319931611418
1761235047495593700,3.76159375,-0.0065668015740811,0.0510072484612464,0.0105374250560998
1761235047513631200,3.77963134765625,-0.0105374250560998,0.05283984541893,0.0073303831741213
1761235047531668500,3.79766845703125,-0.0058032199740409,0.0572686158120632,0.0012217304902151
1761235047549706000,3.8157060546875,-0.0039706239476799,0.0612392425537109,0.0007635815418325
1761235047567744300,3.833744140625,-0.0039706239476799,0.0507018156349659,0.0022907445672899
1761235047585781800,3.85178173828125,-0.0025961773935705,0.0458148941397666,-0.0012217304902151
1761235047603819500,3.869819580078125,-0.0054977871477603,0.0435241498053073,0.001527163083665
1761235047621857000,3.88785693359375,-0.0079412478953599,0.0374154970049858,0.0068722339347004
1761235047639894500,3.90589453125,0.00137444678694,0.0297796800732612,0.0079412478953599
1761235047657929500,3.923929443359375,-0.0021380283869802,0.0276416521519422,0.01328631862998
1761235047675972900,3.941972900390625,-0.011148290708661,0.0207694191485643,0.0178678091615438
1761235047694007600,3.960007568359375,-0.0025961773935705,0.0077885319478809,0.0030543261673301
1761235047712045000,3.978045166015625,-0.001527163083665,0.005192354787141,-0.0007635815418325
1761235047730082600,3.99608251953125,-0.0134390350431203,0.005192354787141,0.0083993971347808
1761235047748117800,4.01411767578125,-0.0041233403608202,0.0044287731871008,0.0041233403608202
1761235047766160600,4.03216064453125,0.0027488935738801,0.0145080499351024,0.0036651915870606
1761235047784195800,4.05019580078125,0.0,0.011148290708661,0.0143553335219621
1761235047802233300,4.0682333984375,0.0062613687478005,0.0042760567739605,-0.0082466807216405
1761235047820271000,4.08627099609375,0.0093156946823,0.0138971842825412,-0.0062613687478005
1761235047838308600,4.10430859375,0.0076358155347406,0.0235183127224445,0.0171042270958423
1761235047856346600,4.1223466796875,0.00534507073462,0.0235183127224445,0.0054977871477603
1761235047874384100,4.140384033203125,0.007177666760981,0.0128281703218817,-0.0036651915870606
1761235047892427300,4.15842724609375,0.0094684110954403,0.01328631862998,0.0
1761235047910459100,4.176459228515625,0.0117591563612222,0.0126754539087414,0.0067195175215601
1761235047928497200,4.1944970703125,0.0119118718430399,0.0058032199740409,0.0036651915870606
1761235047946540300,4.212540283203125,0.0166460778564214,-0.001527163083665,-0.0062613687478005
1761235047964572200,4.230572265625,0.0119118718430399,-0.001527163083665,0.0019853119738399
1761235047982598700,4.2485986328125,0.0119118718430399,0.0024434609804302,0.0064140851609408
1761235048000647400,4.2666474609375,0.0117591563612222,0.0036651915870606,-0.0048869219608604
1761235048018685000,4.284684814453125,0.0070249503478407,0.0154243474826216,-0.0061086523346602
1761235048036723000,4.302722900390625,0.0056505035609006,0.0137444678694009,0.0030543261673301
1761235048054759400,4.320759521484375,0.009010262787342,0.0100792767480015,-0.0024434609804302
1761235048072799200,4.33879931640625,0.0073303831741213,0.0109955742955207,0.0012217304902151
1761235048090835700,4.356835693359375,0.0059559359215199,0.026419922709465,0.00137444678694
1761235048108857900,4.37485791015625,0.0116064399480819,0.0386372283101081,0.0192422550171613
1761235048126906600,4.39290673828125,0.0093156946823,0.028557950630784,0.0178678091615438
1761235048144953000,4.410953125,-0.0032070425804704,-0.0087048299610614,-0.0032070425804704
1761235048162986200,4.428986328125,0.0056505035609006,-0.0123700210824608,-0.0145080499351024
1761235048181023500,4.4470234375,0.0100792767480015,0.0135917514562606,0.009010262787342
1761235048199061200,4.465061279296875,-0.011148290708661,0.0242818929255008,0.0138971842825412
1761235048217098800,4.4830986328125,-0.0163406450301408,0.0158824957907199,-0.0032070425804704
1761235048235136800,4.50113671875,-0.0062613687478005,0.015118914656341,0.0044287731871008
1761235048253174500,4.519174560546875,-0.0024434609804302,0.0157297793775796,0.0174096599221229
1761235048271212000,4.5372119140625,-0.0155770638957619,-0.0004581489483825,0.00335975876078
1761235048289246200,4.55524609375,-0.02122756652534,-0.0074830991216003,-0.0022907445672899
1761235048307275300,4.573275146484375,-0.0126754539087414,-0.0041233403608202,0.0018325957935303
1761235048325324800,4.59132470703125,-0.00137444678694,-0.0073303831741213,0.00534507073462
1761235048343362600,4.609362548828125,-0.0039706239476799,-0.0175623763352632,-0.0044287731871008
1761235048361400000,4.627400146484375,0.0044287731871008,-0.011148290708661,-0.00534507073462
1761235048379437600,4.6454375,0.0097738439217209,-0.00335975876078,0.0083993971347808
1761235048397475000,4.66347509765625,0.0138971842825412,0.0068722339347004,0.0277943685650825
1761235048415505700,4.681505615234375,0.0140499006956815,0.0065668015740811,0.0250454749912023
1761235048433550600,4.699550537109375,-0.0010690141934901,0.0038179077673703,0.0155770638957619
1761235048451576600,4.71757666015625,-0.0058032199740409,0.0065668015740811,0.0300851128995418
1761235048469625900,4.7356259765625,0.0100792767480015,-0.0042760567739605,0.0244346093386411
1761235048487663900,4.753663818359375,0.0131336031481623,-0.0276416521519422,-0.001527163083665
1761235048505698600,4.771698486328125,0.0038179077673703,-0.0620028227567672,-0.0099265603348612
1761235048523742000,4.789741943359375,0.0038179077673703,-0.0858265683054924,-0.0261144898831844
1761235048541776000,4.80777587890625,0.0056505035609006,-0.0841466858983039,-0.0155770638957619
1761235048559815000,4.82581494140625,-0.0103847095742821,-0.0933096632361412,-0.0021380283869802
1761235048577851600,4.8438515625,-0.0235183127224445,-0.1076650023460388,-0.0267253536731004
1761235048595889700,4.8618896484375,-0.0192422550171613,-0.1120937690138816,-0.019089538604021
1761235048613911800,4.879911865234375,-0.0058032199740409,-0.1134682223200798,-0.0166460778564214
1761235048631965000,4.89796484375,-0.0021380283869802,-0.1036943718791008,-0.0310014113783836
1761235048650002400,4.91600244140625,0.0010690141934901,-0.0882700309157371,-0.0174096599221229
1761235048668036900,4.934036865234375,-0.0012217304902151,-0.0726929605007171,-0.0158824957907199
1761235048686080300,4.952080322265625,-0.0035124751739203,-0.0639881342649459,-0.0238237436860799
1761235048704115500,4.970115478515625,0.0085521135479211,-0.0561996027827262,-0.019089538604021
1761235048722153200,4.9881533203125,0.0291688162833452,-0.0302378293126821,-0.0232128798961639
1761235048740190700,5.006190673828125,0.0290160998702049,-0.0178678091615438,-0.0198531206697225
1761235048758228200,5.024228271484375,0.0197004042565822,-0.0224492978304624,-0.0229074470698833
1761235048776262700,5.0422626953125,0.0256563406437635,-0.0255036242306232,-0.0401643887162208
1761235048794303500,5.060303466796875,0.0381790772080421,-0.0256563406437635,-0.0400116741657257
1761235048812341000,5.078341064453125,0.0438295826315879,-0.0197004042565822,-0.0268780700862407
1761235048830378200,5.096378173828125,0.0335975885391235,-0.0094684110954403,-0.0189368221908807
1761235048848416000,5.114416015625,0.027030786499381,0.0056505035609006,-0.0126754539087414
1761235048866453500,5.13245361328125,0.030695978552103,0.0041233403608202,-0.0058032199740409
1761235048884491300,5.1504912109375,0.0310014113783836,-0.0308486949652433,-0.0174096599221229
1761235048902517500,5.168517578125,0.0236710291355848,-0.046578474342823,-0.0426078513264656
1761235048920567000,5.186567138671875,0.0386372283101081,-0.012980886735022,-0.0200058370828628
1761235048938604500,5.2046044921875,0.0384845100343227,0.034972034394741,0.0035124751739203
1761235048956642300,5.222642333984375,0.0236710291355848,0.0542142912745475,0.0174096599221229
1761235048974679000,5.240678955078125,0.0255036242306232,0.0374154970049858,0.016951510682702
1761235048992718300,5.25871826171875,0.0389426611363887,0.0117591563612222,-0.0004581489483825
1761235049010755000,5.276755126953125,0.0416915528476238,0.0204639863222837,-0.0120645882561802
1761235049028792300,5.294792236328125,0.0282525178045034,0.0328340083360672,0.0117591563612222
1761235049046827300,5.3128271484375,0.0213802829384803,0.0288633834570646,0.0183259565383195
1761235049064870400,5.330870361328125,0.0305432621389627,0.0291688162833452,0.0058032199740409
1761235049082905600,5.348905517578125,0.0293215326964855,0.0096211275085806,0.0038179077673703
1761235049100943400,5.366943359375,0.027030786499381,-0.0244346093386411,0.007177666760981
1761235049118981000,5.384981201171875,0.0239764600992202,-0.0325285755097866,-0.0093156946823
1761235049137018600,5.4030185546875,0.0213802829384803,-0.0291688162833452,-0.011148290708661
1761235049155054800,5.421054931640625,0.0157297793775796,-0.015118914656341,-0.0114537235349416
1761235049173094700,5.4390947265625,0.0106901414692401,0.0114537235349416,-0.0239764600992202
1761235049191131400,5.45713134765625,0.0105374250560998,0.0453567430377006,-0.0122173046693205
1761235049209165600,5.47516552734375,0.0163406450301408,0.0532979927957057,-0.0215329993516206
1761235049227206400,5.493206298828125,0.0061086523346602,0.0497855171561241,-0.0542142912745475
1761235049245244000,5.511243896484375,-0.0083993971347808,0.0737619772553443,-0.048105638474226
1761235049263281700,5.52928173828125,-0.001527163083665,0.110566608607769,-0.0099265603348612
1761235049281307000,5.547306884765625,-0.0074830991216003,0.126143679022789,-0.0022907445672899
1761235049299357200,5.565357177734375,-0.0197004042565822,0.1192714422941207,-0.0061086523346602
1761235049317395000,5.58339501953125,-0.0123700210824608,0.1140790879726409,-0.0091629782691597
1761235049335432400,5.601432373046875,-0.011148290708661,0.1026253625750541,0.0022907445672899
1761235049353470000,5.619469970703125,-0.0042760567739605,0.0748309940099716,0.0006108652451075
1761235049371494400,5.637494384765625,0.0018325957935303,0.0438295826315879,-0.0067195175215601
1761235049389545000,5.655544921875,0.0077885319478809,0.011148290708661,-0.0059559359215199
1761235049407583000,5.6735830078125,0.0203112699091434,-0.0293215326964855,-0.0334448739886283
1761235049425620500,5.691620361328125,0.0268780700862407,-0.02122756652534,-0.0316122770309448
1761235049443657700,5.70965771484375,0.0290160998702049,-0.0042760567739605,-0.0271835029125213
1761235049461696000,5.727696044921875,0.0105374250560998,0.0105374250560998,-0.0036651915870606
1761235049479733500,5.7457333984375,-0.001527163083665,0.0222965814173221,0.0142026171088218
1761235049497770800,5.763770751953125,-0.0096211275085806,0.0123700210824608,0.0045814891345798
1761235049515808500,5.78180859375,-0.0117591563612222,0.0143553335219621,-0.0027488935738801
1761235049533846300,5.79984619140625,-0.0164933614432811,0.0280998013913631,0.0047342055477201
1761235049551883800,5.8178837890625,-0.0167987942695617,0.0340557359158992,0.0230601634830236
1761235049569921800,5.835921875,-0.0056505035609006,0.0507018156349659,0.0140499006956815
1761235049587957200,5.853957275390625,-0.0058032199740409,0.0642935633659362,0.0003054326225537
1761235049605998800,5.871998779296875,-0.0082466807216405,0.0743728429079055,0.0056505035609006
1761235049624034300,5.890034423828125,-0.0074830991216003,0.0849102661013603,0.0076358155347406
1761235049642072300,5.908072265625,-0.0064140851609408,0.0945313945412635,0.005192354787141
1761235049660107000,5.92610693359375,0.0293215326964855,0.1128573566675186,-0.0609338097274303
1761235049678147800,5.94414794921875,0.0276416521519422,0.0914770737290382,-0.0456621758639812
1761235049696187100,5.962187255859375,0.0047342055477201,0.090408056974411,-0.02122756652534
1761235049714222300,5.980222412109375,-0.0273362193256616,0.0745255574584007,0.0476474873721599
1761235049732260000,5.998260009765625,-0.0146607663482427,0.0256563406437635,-0.0091629782691597
1761235049750297600,6.016297607421875,0.0050396383740007,-0.0215329993516206,-0.0448985956609249
1761235049768335600,6.034335693359375,-0.0345138870179653,-0.0529925599694252,0.0064140851609408
1761235049786373400,6.052373291015625,-0.0645989999175071,-0.0647517144680023,0.0236710291355848
1761235049804411000,6.070410888671875,-0.0302378293126821,-0.0329867228865623,0.0085521135479211
1761235049822437400,6.088437255859375,-0.00534507073462,-0.00335975876078,0.0004581489483825
1761235049840482000,6.10648193359375,-0.0135917514562606,0.0177150927484035,0.0070249503478407
1761235049858526700,6.124526611328125,-0.0149661982432007,0.0358883328735828,0.0036651915870606
1761235049876561700,6.142561767578125,-0.0142026171088218,0.064446285367012,0.0291688162833452
1761235049894599700,6.160599609375,-0.0178678091615438,0.0829249545931816,0.0384845100343227
1761235049912624600,6.178624755859375,-0.0340557359158992,0.0696386396884918,0.0138971842825412
1761235049930674400,6.19667431640625,-0.0280998013913631,0.066737025976181,0.0291688162833452
1761235049948708400,6.214708251953125,-0.009010262787342,0.0519235469400882,0.0293215326964855
1761235049966747100,6.2327470703125,-0.0041233403608202,0.0291688162833452,0.0213802829384803
1761235049984788700,6.250788818359375,-0.0038179077673703,0.0001527163112768,0.0105374250560998
1761235050002826000,6.268825927734375,-0.0030543261673301,-0.030695978552103,-0.0029016099870204
1761235050020862200,6.2868623046875,-0.0178678091615438,-0.0441350154578685,-0.009010262787342
1761235050038900200,6.304900146484375,0.0166460778564214,-0.0106901414692401,-0.0166460778564214
1761235050056937700,6.322937744140625,0.0296269636601209,0.0229074470698833,0.0198531206697225
1761235050074975200,6.340975341796875,0.0386372283101081,0.0339030213654041,-0.0009162978967651
1761235050093012700,6.3590126953125,0.0762054398655891,0.0832303911447525,-0.0447458773851394
1761235050111051000,6.377051025390625,0.0038179077673703,0.1053742542862892,0.048105638474226
1761235050129088300,6.395088134765625,-0.027030786499381,0.0348193198442459,0.0899499058723449
1761235050147125800,6.413125732421875,-0.0120645882561802,-0.0067195175215601,0.0503963828086853
1761235050165163500,6.43116357421875,0.0022907445672899,-0.0745255574584007,-0.0473420582711696
1761235050183201000,6.449200927734375,-0.0050396383740007,-0.1415680199861526,-0.1185078546404838
1761235050201238300,6.46723828125,-0.0342084541916847,-0.1531744599342346,-0.119118720293045
1761235050219272000,6.48527197265625,-0.1056796908378601,-0.1365283876657486,0.0335975885391235
1761235078777159700,0.14115966796875,-0.0047342055477201,-0.0447458773851394,0.0229074470698833
1761235078795373800,0.159373779296875,-0.0108428578823804,-0.0493273697793483,0.0200058370828628
1761235078813411300,0.177411376953125,-0.0245873257517814,-0.039248090237379,0.0271835029125213
1761235078831458800,0.195458740234375,-0.0394008085131645,-0.0164933614432811,0.0204639863222837
1761235078849496800,0.213496826171875,-0.0155770638957619,-0.0238237436860799,0.0061086523346602
1761235078867534000,0.2315341796875,0.0064140851609408,-0.0050396383740007,0.0048869219608604
1761235078885571800,0.24957177734375,0.0140499006956815,-0.0038179077673703,0.027030786499381
1761235078903609900,0.26760986328125,0.0222965814173221,-0.0123700210824608,0.0455094613134861
1761235078935175200,0.299175048828125,0.0200058370828628,-0.0244346093386411,0.052381694316864
1761235078953201400,0.317201416015625,0.0189368221908807,-0.016951510682702,0.0598647929728031
1761235078971249000,0.335248779296875,0.0256563406437635,-0.0065668015740811,0.0618501044809818
1761235078989283300,0.353283447265625,0.0187841057777404,0.0068722339347004,0.0546724386513233
1761235079007324400,0.371324462890625,0.0064140851609408,0.0074830991216003,0.0584903471171855
1761235079025362400,0.389362548828125,0.0061086523346602,0.00137444678694,0.0522289797663688
1761235079043399700,0.407399658203125,-0.0050396383740007,0.0065668015740811,0.0326812900602817
1761235079061437700,0.425437744140625,-0.0039706239476799,0.0091629782691597,0.0172569435089826
1761235079079475000,0.443474853515625,-0.0054977871477603,0.0271835029125213,0.0251981914043426
1761235079097513000,0.461512939453125,-0.0062613687478005,0.0526871271431446,0.0334448739886283
1761235079115538200,0.4795380859375,0.0050396383740007,0.0620028227567672,0.0334448739886283
1761235079133588000,0.497587890625,0.0138971842825412,0.0507018156349659,0.0297796800732612
1761235079151625200,0.515625244140625,0.0210748501121997,0.0293215326964855,0.0337503030896186
1761235079169663200,0.533663330078125,0.026419922709465,0.0685696229338646,0.0473420582711696
1761235079187700200,0.5517001953125,0.0314595587551593,0.0591012127697467,0.057115901261568
1761235079205738000,0.569738037109375,0.030695978552103,0.0219911485910415,0.0497855171561241
1761235079223775500,0.587775390625,0.0193949714303016,0.0001527163112768,0.0503963828086853
1761235079241813800,0.605813720703125,0.0280998013913631,0.0204639863222837,0.0665843114256858
1761235079259850800,0.623850830078125,0.0258090570569038,-0.0047342055477201,0.0778853222727775
1761235079277889000,0.641888916015625,0.0200058370828628,-0.0406225398182868,0.0668897479772567
1761235079295926000,0.659926025390625,0.0155770638957619,-0.0678060427308082,0.0555887371301651
1761235079313964000,0.677964111328125,-0.0099265603348612,-0.0841466858983039,0.0555887371301651
1761235079331999200,0.695999267578125,-0.0006108652451075,-0.0875064432621002,0.0545197241008281
1761235079350039800,0.714039794921875,0.0059559359215199,-0.110566608607769,0.0403171069920063
1761235079368077300,0.732077392578125,0.005192354787141,-0.1003346145153045,0.0339030213654041
1761235079386114300,0.7501142578125,0.0187841057777404,-0.0662788823246955,0.0529925599694252
1761235079404151600,0.768151611328125,0.0329867228865623,-0.0103847095742821,0.0630718395113945
1761235079422189600,0.786189453125,0.0094684110954403,0.0238237436860799,0.0704022198915481
1761235079440226600,0.8042265625,-0.0198531206697225,0.0693332031369209,0.057115901261568
1761235079458265000,0.82226513671875,-0.0143553335219621,0.1076650023460388,0.0389426611363887
1761235079476302300,0.84030224609375,0.0158824957907199,0.1166752651333808,0.0354301854968071
1761235079494339800,0.85833984375,0.0296269636601209,0.1070541366934776,0.0305432621389627
1761235079512377000,0.876377197265625,0.0354301854968071,0.0948368310928344,0.0186313893646001
1761235079530415600,0.89441552734375,0.0284052342176437,0.0736092627048492,0.0120645882561802
1761235079548452000,0.9124521484375,0.0245873257517814,0.040775254368782,0.019089538604021
1761235079566490400,0.930490478515625,0.0167987942695617,0.0079412478953599,0.0178678091615438
1761235079584527400,0.94852734375,0.0027488935738801,-0.0105374250560998,0.015118914656341
1761235079602565600,0.966565673828125,-0.0019853119738399,0.0004581489483825,0.0065668015740811
1761235079620596700,0.9845966796875,-0.0042760567739605,0.0038179077673703,0.0067195175215601
1761235079638641000,1.002640869140625,0.00167987938039,-0.0059559359215199,0.0184786729514598
1761235079656678100,1.02067822265625,0.0100792767480015,-0.0348193198442459,0.0210748501121997
1761235079674715400,1.03871533203125,0.0232128798961639,-0.0516181141138076,0.0113010071218013
1761235079692753700,1.056753662109375,0.0242818929255008,-0.0236710291355848,0.0044287731871008
1761235079710791000,1.074791015625,0.0029016099870204,-0.0186313893646001,-0.0006108652451075
1761235079728828400,1.092828369140625,0.001527163083665,-0.0161879286170005,0.0065668015740811
1761235079746866400,1.110866455078125,-0.0041233403608202,0.0030543261673301,0.011148290708661
1761235079764903700,1.128903564453125,-0.0114537235349416,0.0113010071218013,0.0114537235349416
1761235079782941200,1.146941162109375,0.0019853119738399,0.0067195175215601,0.0041233403608202
1761235079800978700,1.164978759765625,0.0010690141934901,0.0375682115554809,-0.0027488935738801
1761235079819017000,1.183016845703125,0.00335975876078,0.0575740486383438,-0.0025961773935705
1761235079837053400,1.201053466796875,0.0025961773935705,0.0600175112485885,-0.0041233403608202
1761235079855091700,1.219091796875,0.0038179077673703,0.0678060427308082,0.0091629782691597
1761235079873128700,1.237128662109375,0.0085521135479211,0.0668897479772567,0.0172569435089826
1761235079891167000,1.2551669921875,0.0221438650041818,0.0473420582711696,0.0155770638957619
1761235079909200400,1.273200439453125,0.0314595587551593,0.0545197241008281,0.0203112699091434
1761235079927242500,1.291242431640625,0.0230601634830236,0.0378736443817615,0.0213802829384803
1761235079945279200,1.309279296875,0.0074830991216003,0.0316122770309448,0.0073303831741213
1761235079963317500,1.3273173828125,0.00167987938039,0.0117591563612222,0.0120645882561802
1761235079981354800,1.345354736328125,-0.0056505035609006,0.0093156946823,0.0117591563612222
1761235079999388700,1.363388671875,-0.0012217304902151,0.0167987942695617,0.0116064399480819
1761235080017433900,1.381433837890625,0.0079412478953599,0.0068722339347004,0.0142026171088218
1761235080035467500,1.399467529296875,0.0154243474826216,-0.0230601634830236,0.0096211275085806
1761235080053504800,1.4175048828125,0.0166460778564214,-0.0200058370828628,0.0082466807216405
1761235080071542800,1.435542724609375,0.0203112699091434,-0.0067195175215601,0.0157297793775796
1761235080089579800,1.453579833984375,0.0085521135479211,-0.0074830991216003,0.0180205255746841
1761235080107617800,1.47161767578125,0.0025961773935705,-0.0187841057777404,0.0093156946823
1761235080125655300,1.4896552734375,0.0032070425804704,-0.0117591563612222,0.0022907445672899
1761235080143693300,1.507693359375,0.0054977871477603,0.0047342055477201,0.0047342055477201
1761235080161730600,1.52573046875,0.0010690141934901,0.0022907445672899,0.0025961773935705
1761235080179765800,1.543765869140625,-0.0009162978967651,-0.0154243474826216,0.0001527163112768
1761235080197808600,1.56180859375,0.001527163083665,-0.0218384321779012,-0.0022907445672899
1761235080215843600,1.579843505859375,0.0003054326225537,-0.0093156946823,-0.0006108652451075
1761235080233880300,1.59788037109375,-0.0032070425804704,0.0065668015740811,-0.0019853119738399
1761235080251908600,1.61590869140625,0.0059559359215199,-0.0059559359215199,0.0001527163112768
1761235080269955800,1.633955810546875,0.0087048299610614,-0.0140499006956815,-0.0004581489483825
1761235080287982600,1.651982666015625,0.0041233403608202,-0.0093156946823,-0.0032070425804704
1761235080306031400,1.67003125,0.0035124751739203,0.0116064399480819,-0.0039706239476799
1761235080324069400,1.6880693359375,0.0025961773935705,-0.0079412478953599,-0.0042760567739605
1761235080342106000,1.706106201171875,0.0022907445672899,-0.0120645882561802,-0.0058032199740409
1761235080360144100,1.72414404296875,0.0032070425804704,-0.0140499006956815,-0.0076358155347406
1761235080378181400,1.742181396484375,0.009010262787342,0.0018325957935303,-0.0091629782691597
1761235080396220000,1.760219970703125,0.0048869219608604,-0.0085521135479211,-0.0074830991216003
1761235080414256600,1.778256591796875,-0.0001527163112768,-0.0122173046693205,-0.0001527163112768
1761235080432295000,1.796294921875,0.0025961773935705,-0.009010262787342,-0.0030543261673301
1761235080450331600,1.81433154296875,0.005192354787141,0.0019853119738399,-0.0022907445672899
1761235080468369700,1.83236962890625,0.0038179077673703,0.001527163083665,-0.0125227374956011
1761235080486407000,1.850406982421875,0.0042760567739605,0.00534507073462,-0.0122173046693205
1761235080504445000,1.86844482421875,0.0039706239476799,0.0080939643085002,-0.0100792767480015
1761235080522482000,1.88648193359375,0.0019853119738399,0.0242818929255008,0.0010690141934901
1761235080540520200,1.904520263671875,0.00167987938039,0.0221438650041818,-0.0004581489483825
1761235080558557200,1.92255712890625,0.0,0.0186313893646001,-0.0027488935738801
1761235080576595500,1.940595458984375,0.0067195175215601,0.0230601634830236,0.0019853119738399
1761235080594632000,1.9586318359375,0.0041233403608202,0.0167987942695617,0.0065668015740811
1761235080612671200,1.976671142578125,0.0032070425804704,0.0093156946823,0.0058032199740409
1761235080630707700,1.994707763671875,0.0082466807216405,0.01328631862998,0.0042760567739605
1761235080648746000,2.01274609375,0.0045814891345798,0.0148134818300604,0.0074830991216003
1761235080666780200,2.0307802734375,0.00534507073462,0.0152716310694813,0.0096211275085806
1761235080684821500,2.048821533203125,0.0058032199740409,0.0067195175215601,0.0012217304902151
1761235080702860500,2.066860595703125,0.0119118718430399,-0.0036651915870606,-0.0064140851609408
1761235080720896000,2.08489599609375,0.0067195175215601,-0.0149661982432007,-0.0067195175215601
1761235080738933200,2.102933349609375,-0.00167987938039,-0.0109955742955207,-0.0019853119738399
1761235080756960500,2.12096044921875,-0.0003054326225537,-0.0138971842825412,0.0007635815418325
1761235080775007500,2.139007568359375,0.0025961773935705,-0.0119118718430399,-0.0027488935738801
1761235080793047800,2.1570478515625,0.0048869219608604,0.0001527163112768,-0.0048869219608604
1761235080811083500,2.17508349609375,0.0120645882561802,0.0328340083360672,0.0042760567739605
1761235080829117700,2.19311767578125,0.0077885319478809,0.0539088584482669,0.0064140851609408
1761235080847159000,2.211158935546875,0.0025961773935705,0.0383317954838275,0.0009162978967651
1761235080865197000,2.229197021484375,0.0019853119738399,0.0193949714303016,-0.007177666760981
1761235080883234000,2.247234130859375,0.0070249503478407,0.0201585534960031,-0.0116064399480819
1761235080901271800,2.265271728515625,0.0093156946823,0.0161879286170005,-0.0064140851609408
1761235080919313000,2.28331298828125,0.0047342055477201,0.0062613687478005,-0.0059559359215199
1761235080937347300,2.301347412109375,0.0030543261673301,0.0120645882561802,-0.0091629782691597
1761235080955384000,2.319384033203125,0.0039706239476799,0.0303905457258224,-0.0032070425804704
1761235080973422600,2.337422607421875,-0.0024434609804302,0.0149661982432007,-0.0022907445672899
1761235080991459300,2.355459228515625,-0.00137444678694,-0.009010262787342,-0.0142026171088218
1761235081009497300,2.373497314453125,0.0061086523346602,-0.0166460778564214,-0.0143553335219621
1761235081027534600,2.39153466796875,0.0074830991216003,-0.0183259565383195,-0.0113010071218013
1761235081045572900,2.40957275390625,0.0064140851609408,0.0122173046693205,-0.0116064399480819
1761235081063609900,2.42760986328125,0.0009162978967651,0.019089538604021,-0.0085521135479211
1761235081081648400,2.4456484375,0.00335975876078,0.0161879286170005,-0.0061086523346602
1761235081099680500,2.463680419921875,0.0010690141934901,0.0145080499351024,-0.00137444678694
1761235081117721600,2.4817216796875,0.0012217304902151,0.0261144898831844,-0.0044287731871008
1761235081135760400,2.499760498046875,0.0064140851609408,0.0378736443817615,-0.0091629782691597
1761235081153798400,2.51779833984375,0.0054977871477603,0.0149661982432007,-0.0145080499351024
1761235081171835100,2.535835205078125,0.00167987938039,0.0177150927484035,-0.0193949714303016
1761235081189873400,2.553873291015625,-0.0064140851609408,0.0100792767480015,-0.0253509078174829
1761235081207910100,2.57191015625,-0.0022907445672899,0.0106901414692401,-0.0262672062963247
1761235081225948400,2.589948486328125,-0.0027488935738801,0.0038179077673703,-0.0251981914043426
1761235081243985700,2.607985595703125,-0.0056505035609006,0.0241291765123605,-0.0207694191485643
1761235081262024000,2.62602392578125,-0.0039706239476799,0.0219911485910415,-0.0128281703218817
1761235081280061000,2.64406103515625,0.0007635815418325,0.0068722339347004,-0.00534507073462
1761235081298099000,2.662098876953125,0.0038179077673703,-0.0032070425804704,-0.0042760567739605
1761235081316136000,2.680135986328125,0.0050396383740007,-0.0137444678694009,-0.0027488935738801
1761235081334174200,2.69817431640625,0.007177666760981,-0.0085521135479211,-0.0019853119738399
1761235081352208100,2.7162080078125,0.0091629782691597,-0.0161879286170005,-0.00335975876078
1761235081370252000,2.734251953125,0.0029016099870204,-0.0305432621389627,-0.0041233403608202
1761235081388286200,2.7522861328125,0.00167987938039,-0.0323758572340011,-0.0067195175215601
1761235081406324200,2.77032421875,0.0065668015740811,-0.0125227374956011,-0.0032070425804704
1761235081424350200,2.78835009765625,0.0047342055477201,-0.0064140851609408,-0.0021380283869802
1761235081442399700,2.806399658203125,-0.001527163083665,-0.0177150927484035,0.0004581489483825
1761235081460436700,2.824436767578125,0.0068722339347004,-0.009010262787342,-0.0004581489483825
1761235081478475000,2.84247509765625,0.0068722339347004,-0.0047342055477201,0.0
1761235081496512300,2.86051220703125,0.0021380283869802,-0.0064140851609408,-0.0003054326225537
1761235081514545700,2.878545654296875,0.0003054326225537,0.0080939643085002,0.0087048299610614
1761235081532591400,2.89659130859375,0.00137444678694,0.0128281703218817,0.0038179077673703
1761235081550625000,2.914625,0.0047342055477201,0.0250454749912023,0.0044287731871008
1761235081568650200,2.932650146484375,0.0076358155347406,0.0146607663482427,0.0125227374956011
1761235081586688300,2.950688232421875,0.0065668015740811,0.0198531206697225,0.0178678091615438
1761235081604736800,2.96873681640625,0.0061086523346602,0.0216857157647609,0.01328631862998
1761235081622762200,2.98676220703125,0.0062613687478005,0.0050396383740007,0.0079412478953599
1761235081640815400,3.0048154296875,0.0032070425804704,-0.0097738439217209,0.0038179077673703
1761235081658850800,3.022850830078125,0.0010690141934901,-0.0276416521519422,-0.0032070425804704
1761235081676887600,3.040887451171875,0.0009162978967651,-0.0135917514562606,-0.001527163083665
1761235081694925600,3.058925537109375,0.0001527163112768,0.0027488935738801,0.0009162978967651
1761235081712962800,3.076962890625,-0.0041233403608202,0.0079412478953599,0.011148290708661
1761235081731001000,3.0950009765625,-0.00167987938039,0.0088575463742017,0.0145080499351024
1761235081749037800,3.113037841796875,0.0010690141934901,0.0189368221908807,0.0080939643085002
1761235081767077400,3.131077392578125,0.0038179077673703,0.0335975885391235,0.005192354787141
1761235081785100300,3.149100341796875,0.0021380283869802,0.0377209298312664,0.0050396383740007
1761235081803151400,3.1671513671875,0.0010690141934901,0.0351247526705265,0.0054977871477603
1761235081821188400,3.185188232421875,-0.0007635815418325,0.026419922709465,0.0032070425804704
1761235081839222800,3.203222900390625,-0.0030543261673301,0.0213802829384803,0.0077885319478809
1761235081857263000,3.22126318359375,-0.0058032199740409,0.0045814891345798,0.0054977871477603
1761235081875301400,3.23930126953125,0.0,0.0009162978967651,-0.00167987938039
1761235081893338400,3.25733837890625,0.0025961773935705,-0.0109955742955207,0.0003054326225537
1761235081911376600,3.275376708984375,-0.0010690141934901,-0.0238237436860799,0.0027488935738801
1761235081929409300,3.2934091796875,0.0018325957935303,-0.0300851128995418,0.0018325957935303
1761235081947452000,3.311451904296875,0.0076358155347406,-0.0238237436860799,0.0004581489483825
1761235081965489000,3.329489013671875,0.0068722339347004,-0.022754730656743,-0.0056505035609006
1761235081983527200,3.347527099609375,0.0038179077673703,-0.0273362193256616,-0.0076358155347406
1761235082001564200,3.365564208984375,0.0022907445672899,-0.0284052342176437,-0.0032070425804704
1761235082019592400,3.383592529296875,-0.0041233403608202,-0.0242818929255008,0.0045814891345798
1761235082037639700,3.4016396484375,-0.00137444678694,0.0114537235349416,0.0109955742955207
1761235082055677400,3.419677490234375,0.0045814891345798,0.0413861200213432,0.0058032199740409
1761235082073714200,3.437714111328125,0.0045814891345798,0.0358883328735828,0.0035124751739203
1761235082091752200,3.455752197265625,0.0050396383740007,0.012980886735022,-0.0022907445672899
1761235082109789700,3.473789794921875,0.0038179077673703,-0.0114537235349416,-0.0077885319478809
1761235082127828000,3.491827880859375,-0.00137444678694,-0.0119118718430399,-0.0035124751739203
1761235082145865000,3.509864990234375,0.0024434609804302,-0.0122173046693205,-0.0009162978967651
1761235082163903000,3.527903076171875,0.007177666760981,-0.0021380283869802,0.0010690141934901
1761235082181938200,3.545938232421875,0.0018325957935303,0.00167987938039,0.0067195175215601
1761235082199980000,3.56397998046875,-0.0010690141934901,-0.0126754539087414,0.0065668015740811
1761235082218015200,3.58201513671875,-0.001527163083665,-0.0091629782691597,0.0039706239476799
1761235082236053000,3.600052978515625,0.0025961773935705,-0.0022907445672899,-0.0039706239476799
1761235082254094800,3.6180947265625,0.0068722339347004,-0.00137444678694,-0.0054977871477603
1761235082272128500,3.63612841796875,0.005192354787141,-0.0079412478953599,-0.0062613687478005
1761235082290165200,3.654165283203125,-0.00137444678694,-0.0074830991216003,-0.0035124751739203
1761235082308203500,3.67220361328125,-0.00167987938039,0.011148290708661,0.0042760567739605
1761235082326240800,3.69024072265625,-0.0010690141934901,0.0273362193256616,0.0105374250560998
1761235082344278500,3.708278564453125,-0.0012217304902151,0.0297796800732612,0.0189368221908807
1761235082362315800,3.726315673828125,-0.0047342055477201,0.028557950630784,0.0108428578823804
1761235082380354000,3.74435400390625,-0.0030543261673301,0.0197004042565822,0.0077885319478809
1761235082398391000,3.76239111328125,-0.00167987938039,0.0255036242306232,0.009010262787342
1761235082416429300,3.78042919921875,0.0010690141934901,0.019089538604021,-0.0019853119738399
1761235082434466300,3.79846630859375,0.0030543261673301,0.01328631862998,-0.00137444678694
1761235082452504300,3.81650439453125,0.0029016099870204,-0.0054977871477603,-0.0032070425804704
1761235082470541300,3.834541259765625,0.0021380283869802,-0.0054977871477603,-0.0022907445672899
1761235082488579600,3.85257958984375,-0.0025961773935705,-0.0036651915870606,0.0003054326225537
1761235082506616300,3.8706162109375,-0.0061086523346602,-0.0096211275085806,-0.0074830991216003
1761235082524653600,3.888653564453125,0.0010690141934901,-0.0012217304902151,-0.0038179077673703
1761235082542692400,3.9066923828125,0.0030543261673301,0.0076358155347406,0.0009162978967651
1761235082560729600,3.9247294921875,0.0050396383740007,0.0198531206697225,0.005192354787141
1761235082578766800,3.942766845703125,0.0042760567739605,0.0300851128995418,0.0073303831741213
1761235082596804900,3.960804931640625,-0.0012217304902151,0.0287106670439243,0.0065668015740811
1761235082614841900,3.978841796875,0.00335975876078,0.0157297793775796,0.0065668015740811
1761235082632880000,3.996880126953125,0.0036651915870606,0.0082466807216405,0.0012217304902151
1761235082650917000,4.014917236328125,0.0044287731871008,0.0080939643085002,0.0106901414692401
1761235082668955000,4.032954833984375,0.0091629782691597,0.0006108652451075,0.0157297793775796
1761235082686993700,4.05099365234375,0.007177666760981,-0.0038179077673703,0.0082466807216405
1761235082705029000,4.069029052734375,0.0067195175215601,-0.0068722339347004,0.0030543261673301
1761235082723067100,4.087067138671875,0.0009162978967651,-0.0085521135479211,-0.0021380283869802
1761235082741105200,4.105105224609375,-0.0059559359215199,-0.0247400421649217,-0.0050396383740007
1761235082759144000,4.12314404296875,-0.0048869219608604,-0.0311541277915239,-0.0079412478953599
1761235082777181000,4.141180908203125,0.0006108652451075,-0.0352774672210216,-0.0082466807216405
1761235082795218000,4.159218017578125,0.0029016099870204,-0.0303905457258224,-0.0065668015740811
1761235082813255700,4.177255615234375,0.0056505035609006,-0.027030786499381,-0.0062613687478005
1761235082831292700,4.195292724609375,0.005192354787141,-0.026419922709465,-0.0059559359215199
1761235082849329000,4.213328857421875,0.0009162978967651,-0.0201585534960031,-0.0059559359215199
1761235082867370200,4.231370361328125,-0.00137444678694,-0.0328340083360672,-0.0131336031481623
1761235082885406200,4.24940625,0.0042760567739605,-0.0311541277915239,-0.0149661982432007
1761235082903433700,4.267433837890625,0.0059559359215199,-0.0184786729514598,-0.0096211275085806
1761235082921471000,4.285470947265625,0.0083993971347808,-0.0142026171088218,-0.0108428578823804
1761235082939518500,4.3035185546875,0.0167987942695617,-0.0261144898831844,-0.0048869219608604
1761235082957545200,4.321545166015625,0.0174096599221229,-0.0226020142436027,-0.0030543261673301
1761235082975593500,4.339593505859375,0.0137444678694009,-0.005192354787141,-0.005192354787141
1761235082993631700,4.3576318359375,0.0035124751739203,0.0128281703218817,-0.0038179077673703
1761235083011668500,4.37566845703125,0.0027488935738801,0.0042760567739605,-0.0001527163112768
1761235083029706800,4.393706787109375,0.0019853119738399,-0.0082466807216405,-0.0030543261673301
1761235083047744000,4.411743896484375,0.0030543261673301,-0.0313068442046642,-0.0137444678694009
1761235083065782300,4.4297822265625,0.0029016099870204,-0.0375682115554809,-0.0096211275085806
1761235083083819000,4.447819091796875,0.0074830991216003,-0.0247400421649217,0.0048869219608604
1761235083101857300,4.465857177734375,0.0085521135479211,0.00534507073462,0.0131336031481623
1761235083119894300,4.483894287109375,0.0004581489483825,0.0044287731871008,0.0161879286170005
1761235083137932500,4.5019326171875,0.0050396383740007,0.0041233403608202,0.0131336031481623
1761235083155969300,4.51996923828125,0.00534507073462,-0.0010690141934901,0.0025961773935705
1761235083174007600,4.538007568359375,-0.00137444678694,0.0019853119738399,-0.0093156946823
1761235083192044300,4.556044189453125,-0.0045814891345798,0.0064140851609408,-0.0106901414692401
1761235083210082300,4.574082275390625,-0.0007635815418325,0.0073303831741213,-0.0077885319478809
1761235083228119300,4.592119384765625,-0.0038179077673703,0.0149661982432007,-0.00167987938039
1761235083246157800,4.61015771484375,-0.0067195175215601,0.0242818929255008,-0.0042760567739605
1761235083264194600,4.628194580078125,-0.0070249503478407,0.0389426611363887,-0.0076358155347406
1761235083282233000,4.646233154296875,-0.007177666760981,0.0459676086902618,-0.0065668015740811
1761235083300270000,4.66427001953125,-0.0091629782691597,0.034972034394741,-0.0062613687478005
1761235083318307800,4.682307861328125,-0.0050396383740007,0.0288633834570646,0.0004581489483825
1761235083336345300,4.700345458984375,-0.0073303831741213,0.0221438650041818,-0.0083993971347808
1761235083354379300,4.718379150390625,-0.0024434609804302,0.0193949714303016,-0.0093156946823
1761235083372424400,4.736424560546875,0.0024434609804302,0.0074830991216003,-0.01328631862998
1761235083390458000,4.7544580078125,0.0003054326225537,-0.0044287731871008,-0.0256563406437635
1761235083408495000,4.7724951171875,-0.0019853119738399,-0.0302378293126821,-0.0230601634830236
1761235083426533000,4.790533203125,-0.0122173046693205,-0.0326812900602817,-0.0125227374956011
1761235083444570600,4.808570556640625,-0.0050396383740007,-0.0348193198442459,-0.0044287731871008
1761235083462609000,4.82660888671875,0.0022907445672899,-0.022754730656743,-0.0009162978967651
1761235083480645600,4.844645751953125,0.0029016099870204,0.0004581489483825,-0.0044287731871008
1761235083498684000,4.862683837890625,-0.0007635815418325,0.00137444678694,-0.0027488935738801
1761235083516721000,4.880720947265625,-0.0059559359215199,0.0010690141934901,0.0004581489483825
1761235083534758000,4.8987578125,-0.0048869219608604,-0.0004581489483825,-0.0042760567739605
1761235083552797200,4.916797119140625,-0.0041233403608202,-0.0047342055477201,-0.00335975876078
1761235083570834000,4.934833984375,-0.0099265603348612,0.0091629782691597,0.0007635815418325
1761235083588859100,4.952859130859375,-0.0091629782691597,0.015118914656341,0.0022907445672899
1761235083606910700,4.97091064453125,-0.0091629782691597,0.0432187169790267,-0.0047342055477201
1761235083624944600,4.988944580078125,-0.0070249503478407,0.0639881342649459,-0.0091629782691597
1761235083642984400,5.006984375,-0.0135917514562606,0.0751364231109619,-0.0117591563612222
1761235083661021700,5.025021728515625,-0.0126754539087414,0.0713185146450996,-0.0123700210824608
1761235083679059500,5.0430595703125,-0.0128281703218817,0.0844521224498748,-0.0154243474826216
1761235083697096200,5.06109619140625,-0.0143553335219621,0.1078177168965339,-0.0120645882561802
1761235083715133700,5.0791337890625,-0.0189368221908807,0.1146899461746215,-0.0074830991216003
1761235083733173000,5.097173095703125,-0.0207694191485643,0.1145372316241264,-0.0197004042565822
1761235083751209700,5.115209716796875,-0.0192422550171613,0.111482910811901,-0.0255036242306232
1761235083769243600,5.13324365234375,-0.0203112699091434,0.1412625908851623,-0.0242818929255008
1761235083787273000,5.15127294921875,-0.0149661982432007,0.1408044397830963,-0.0163406450301408
1761235083805322000,5.169322021484375,-0.0123700210824608,0.1183551400899887,-0.0123700210824608
1761235083823360300,5.1873603515625,-0.019089538604021,0.1322523206472396,-0.0067195175215601
1761235083841397000,5.20539697265625,0.0012217304902151,0.1363756656646728,-0.0058032199740409
1761235083859435300,5.223435302734375,0.0030543261673301,0.1090394482016563,0.00335975876078
1761235083877472300,5.24147216796875,-0.011148290708661,0.1331686228513717,0.00534507073462
1761235083895510300,5.25951025390625,-0.0268780700862407,0.1350012123584747,0.007177666760981
1761235083913547500,5.277547607421875,-0.0238237436860799,0.1214094683527946,0.0058032199740409
1761235083931574500,5.295574462890625,-0.0126754539087414,0.1032362282276153,0.0022907445672899
1761235083949622500,5.31362255859375,-0.0045814891345798,0.0610865242779254,-0.0030543261673301
1761235083967660500,5.33166064453125,-0.01328631862998,0.0563523173332214,-0.0050396383740007
1761235083985697800,5.34969775390625,-0.0138971842825412,0.0389426611363887,-0.0187841057777404
1761235084003736000,5.367736083984375,-0.0085521135479211,0.0265726372599601,-0.0210748501121997
1761235084021769500,5.38576953125,-0.0010690141934901,0.0267253536731004,-0.0274889357388019
1761235084039814100,5.403814208984375,-0.0022907445672899,0.0195476878434419,-0.0276416521519422
1761235084057847800,5.421847900390625,0.0044287731871008,-0.0400116741657257,-0.0258090570569038
1761235084075889400,5.439889404296875,-0.0001527163112768,-0.0610865242779254,-0.0320704244077205
1761235084093913900,5.457913818359375,0.0010690141934901,-0.0543670058250427,-0.0273362193256616
1761235084111961600,5.475961669921875,0.0059559359215199,-0.050854530185461,-0.0163406450301408
1761235084129998300,5.493998291015625,0.0108428578823804,-0.0517708286643028,-0.0102319931611418
1761235084148036600,5.51203662109375,0.0119118718430399,-0.0565050356090068,-0.0134390350431203
1761235084166073300,5.5300732421875,0.011148290708661,-0.0484110713005065,-0.0102319931611418
1761235084184110300,5.5481103515625,-0.0001527163112768,-0.0510072484612464,-0.0087048299610614
1761235084202150100,5.566150146484375,-0.0009162978967651,-0.0482583530247211,-0.0045814891345798
1761235084220187000,5.584186767578125,0.0004581489483825,-0.0461203269660472,-0.0074830991216003
1761235084238208000,5.6022080078125,0.0021380283869802,-0.0473420582711696,-0.0146607663482427
1761235084256262000,5.620261962890625,-0.0029016099870204,-0.0455094613134861,-0.0131336031481623
1761235084274299000,5.638298828125,-0.0067195175215601,-0.0618501044809818,-0.020616702735424
1761235084292334600,5.65633447265625,-0.0058032199740409,-0.0557414554059505,-0.0200058370828628
1761235084310374000,5.674373779296875,-0.0045814891345798,-0.0496328026056289,-0.0210748501121997
1761235084328412200,5.692412109375,0.001527163083665,-0.0653625801205635,-0.0180205255746841
1761235084346449000,5.710448974609375,0.0079412478953599,-0.0681114718317985,-0.0093156946823
1761235084364487200,5.728487060546875,0.0087048299610614,-0.0632245540618896,0.0022907445672899
1761235084382524400,5.7465244140625,0.0024434609804302,-0.046578474342823,0.0074830991216003
1761235084400562700,5.764562744140625,0.00335975876078,-0.0448985956609249,0.0093156946823
1761235084418599700,5.782599609375,0.0073303831741213,-0.0445931628346443,0.0093156946823
1761235084436637700,5.8006376953125,0.0116064399480819,-0.0510072484612464,0.0042760567739605
1761235084454673700,5.818673583984375,0.0148134818300604,-0.0418442711234092,0.0138971842825412
1761235084472713700,5.836713623046875,0.0094684110954403,-0.047036625444889,0.0215329993516206
1761235084490749700,5.854749755859375,0.005192354787141,-0.0313068442046642,0.0226020142436027
1761235084508787700,5.87278759765625,-0.0006108652451075,-0.0180205255746841,0.0222965814173221
1761235084526823700,5.89082373046875,-0.0038179077673703,-0.0024434609804302,0.0244346093386411
1761235084544862500,5.908862548828125,-0.0032070425804704,0.0058032199740409,0.0226020142436027
1761235084562900700,5.926900634765625,-0.0004581489483825,0.0065668015740811,0.0239764600992202
1761235084580938200,5.944938232421875,0.0025961773935705,0.0035124751739203,0.0209221355617046
1761235084598975000,5.96297509765625,-0.0047342055477201,0.0038179077673703,0.019089538604021
1761235084617013200,5.98101318359375,-0.0083993971347808,0.020616702735424,0.0177150927484035
1761235084635050200,5.99905029296875,-0.0109955742955207,0.0148134818300604,0.0183259565383195
1761235084653088300,6.017088134765625,-0.0067195175215601,0.0152716310694813,0.0080939643085002
1761235084671125200,6.035125244140625,-0.005192354787141,-0.0117591563612222,0.0145080499351024
1761235084689158000,6.053157958984375,0.0035124751739203,-0.01328631862998,0.0226020142436027
1761235084707202800,6.071202880859375,0.0061086523346602,-0.0198531206697225,0.0224492978304624
1761235084725238500,6.089238525390625,-0.0062613687478005,-0.0995710343122482,0.0633772686123848
1761235084743275300,6.107275146484375,-0.0114537235349416,-0.0925460830330848,0.0134390350431203
1761235084761301800,6.1253017578125,-0.0082466807216405,-0.0610865242779254,0.0099265603348612
1761235084779351000,6.14335107421875,-0.0047342055477201,-0.0361937656998634,0.0006108652451075
1761235084797388800,6.161388916015625,-0.0041233403608202,-0.00534507073462,0.0076358155347406
1761235084815426000,6.179426025390625,-0.0094684110954403,0.0235183127224445,0.0166460778564214
1761235084833464000,6.197464111328125,-0.019089538604021,-0.0045814891345798,0.0200058370828628
1761235084851501300,6.215501220703125,0.0001527163112768,-0.0303905457258224,0.0296269636601209
1761235166522442500,0.1174423828125,0.0529925599694252,0.0045814891345798,-0.0079412478953599
1761235166540833800,0.135833740234375,0.0554360225796699,-0.0174096599221229,-0.0233655963093042
1761235166559240700,0.15424072265625,0.0453567430377006,-0.0274889357388019,-0.0143553335219621
1761235166577635600,0.172635498046875,0.0296269636601209,-0.030695978552103,-0.0100792767480015
1761235166599058000,0.194057861328125,0.0233655963093042,-0.050854530185461,-0.012980886735022
1761235166612152600,0.207152587890625,0.0197004042565822,-0.0532979927957057,-0.0054977871477603
1761235166630277600,0.225277587890625,0.01328631862998,-0.0476474873721599,-0.0180205255746841
1761235166648318700,0.243318603515625,0.01328631862998,-0.0313068442046642,-0.02122756652534
1761235166666356700,0.261356689453125,0.0122173046693205,-0.0262672062963247,-0.0210748501121997
1761235166684394500,0.27939453125,-0.0056505035609006,-0.0343611687421798,-0.0197004042565822
1761235166702431700,0.297431640625,-0.0077885319478809,-0.0424551330506801,-0.009010262787342
1761235166720456700,0.315456787109375,0.0076358155347406,-0.0424551330506801,0.0022907445672899
1761235166738506500,0.333506591796875,0.0186313893646001,-0.0343611687421798,0.0279470849782228
1761235166756544300,0.351544189453125,0.0232128798961639,-0.0148134818300604,0.0293215326964855
1761235166774581500,0.36958154296875,0.0259617734700441,-0.0287106670439243,0.0146607663482427
1761235166792618500,0.387618408203125,0.0229074470698833,-0.0310014113783836,0.0250454749912023
1761235166810656500,0.405656494140625,0.0138971842825412,-0.016951510682702,0.0256563406437635
1761235166828694500,0.423694580078125,0.0004581489483825,-0.0186313893646001,0.0226020142436027
1761235166846731500,0.4417314453125,-0.0050396383740007,-0.0192422550171613,0.0262672062963247
1761235166864768300,0.459768310546875,-0.00137444678694,-0.0135917514562606,0.0395535230636596
1761235166882806800,0.477806884765625,-0.0004581489483825,-0.0174096599221229,0.0282525178045034
1761235166900844500,0.495844482421875,0.0012217304902151,-0.0287106670439243,0.0258090570569038
1761235166918881500,0.513881591796875,-0.0064140851609408,-0.0427605658769607,0.0137444678694009
1761235166936918500,0.53191845703125,-0.0047342055477201,-0.039248090237379,0.0195476878434419
1761235166954956500,0.54995654296875,-0.005192354787141,-0.0299323964864015,0.0317649915814399
1761235166972993300,0.5679931640625,0.0006108652451075,-0.0247400421649217,0.0418442711234092
1761235166991031600,0.586031494140625,0.0113010071218013,-0.0374154970049858,0.0271835029125213
1761235167009068500,0.604068603515625,0.0238237436860799,-0.0334448739886283,0.0105374250560998
1761235167027106600,0.6221064453125,0.0218384321779012,-0.0062613687478005,0.0355829000473022
1761235167045144800,0.640144775390625,0.0119118718430399,0.0157297793775796,0.0299323964864015
1761235167063181600,0.658181640625,-0.0036651915870606,0.0320704244077205,0.0138971842825412
1761235167081218600,0.676218505859375,-0.0161879286170005,0.0366519130766391,0.0058032199740409
1761235167099256600,0.694256591796875,-0.020616702735424,0.0386372283101081,0.0029016099870204
1761235167117294600,0.712294677734375,-0.0271835029125213,0.0484110713005065,-0.0073303831741213
1761235167135336700,0.730336669921875,-0.0236710291355848,0.0401643887162208,-0.0200058370828628
1761235167153368600,0.74836865234375,-0.0197004042565822,0.0354301854968071,-0.0105374250560998
1761235167171406600,0.766406494140625,-0.0300851128995418,0.0135917514562606,-0.0070249503478407
1761235167189444600,0.784444580078125,-0.0360410511493682,-0.0236710291355848,-0.0180205255746841
1761235167207481300,0.8024814453125,-0.0247400421649217,-0.0340557359158992,-0.0143553335219621
1761235167225518600,0.8205185546875,-0.0123700210824608,-0.0313068442046642,-0.0138971842825412
1761235167243556600,0.838556640625,-0.0087048299610614,-0.0435241498053073,-0.0155770638957619
1761235167261594600,0.8565947265625,-0.0157297793775796,-0.047036625444889,-0.0080939643085002
1761235167279631600,0.874631591796875,-0.0288633834570646,-0.0435241498053073,-0.0077885319478809
1761235167297668400,0.89266845703125,-0.0308486949652433,-0.028557950630784,-0.0113010071218013
1761235167315705900,0.910705810546875,-0.0215329993516206,-0.027030786499381,-0.0154243474826216
1761235167333745400,0.928745361328125,-0.0106901414692401,-0.0244346093386411,-0.009010262787342
1761235167351782000,0.946781982421875,-0.0024434609804302,-0.015118914656341,-0.0018325957935303
1761235167369816800,0.96481689453125,-0.0042760567739605,-0.0004581489483825,0.0061086523346602
1761235167387858400,0.9828583984375,-0.001527163083665,-0.0083993971347808,-0.00167987938039
1761235167405894400,1.000894287109375,0.0032070425804704,-0.0267253536731004,-0.0030543261673301
1761235167423931400,1.018931396484375,0.0085521135479211,-0.0250454749912023,0.0125227374956011
1761235167441968400,1.036968505859375,0.0077885319478809,-0.0192422550171613,0.0067195175215601
1761235167460005000,1.055005126953125,0.0003054326225537,-0.0452040284872055,-0.0083993971347808
1761235167478046000,1.0730458984375,-0.00137444678694,-0.0609338097274303,0.0010690141934901
1761235167496080600,1.09108056640625,-0.0068722339347004,-0.034972034394741,0.0131336031481623
1761235167514119400,1.109119384765625,-0.0106901414692401,-0.0355829000473022,0.0080939643085002
1761235167532156700,1.12715673828125,-0.0099265603348612,-0.0303905457258224,0.0029016099870204
1761235167550191400,1.14519140625,-0.0077885319478809,-0.0297796800732612,-0.0054977871477603
1761235167568231400,1.1632314453125,-0.001527163083665,-0.0529925599694252,-0.0103847095742821
1761235167586268400,1.181268310546875,0.0044287731871008,-0.0532979927957057,-0.0050396383740007
1761235167604306400,1.199306396484375,0.0087048299610614,-0.024892758578062,0.0195476878434419
1761235167622344700,1.2173447265625,0.0096211275085806,-0.0241291765123605,0.0244346093386411
1761235167640369700,1.23536962890625,0.01328631862998,-0.0149661982432007,0.0178678091615438
1761235167658418700,1.253418701171875,0.011148290708661,0.0010690141934901,0.0029016099870204
1761235167676456400,1.27145654296875,0.0067195175215601,0.0200058370828628,-0.0009162978967651
1761235167694494700,1.28949462890625,-0.007177666760981,0.0316122770309448,-0.0038179077673703
1761235167712531500,1.307531494140625,-0.0102319931611418,0.028557950630784,-0.0012217304902151
1761235167730565600,1.325565673828125,-0.0044287731871008,0.0251981914043426,0.0041233403608202
1761235167748609500,1.343609619140625,-0.0035124751739203,0.0088575463742017,0.0102319931611418
1761235167766644700,1.361644775390625,-0.0044287731871008,-0.0287106670439243,0.0094684110954403
1761235167784681200,1.37968115234375,-0.0036651915870606,-0.042302418500185,0.0103847095742821
1761235167802705000,1.397704833984375,0.0021380283869802,-0.0389426611363887,0.0114537235349416
1761235167820756700,1.4157568359375,0.0003054326225537,-0.024892758578062,0.0126754539087414
1761235167838794800,1.433794677734375,-0.0030543261673301,-0.0145080499351024,0.0080939643085002
1761235167856831700,1.451831787109375,-0.0032070425804704,-0.0123700210824608,-0.0029016099870204
1761235167874868500,1.469868408203125,0.00167987938039,-0.0239764600992202,-0.0012217304902151
1761235167892906500,1.487906494140625,0.0058032199740409,-0.0117591563612222,0.0230601634830236
1761235167910944500,1.505944580078125,0.0038179077673703,0.0125227374956011,0.0197004042565822
1761235167928981500,1.5239814453125,-0.0021380283869802,0.0171042270958423,0.0125227374956011
1761235167947015400,1.542015380859375,-0.0032070425804704,0.0093156946823,0.001527163083665
1761235167965059800,1.560059814453125,-0.0088575463742017,0.009010262787342,-0.0009162978967651
1761235167983094500,1.578094482421875,-0.0123700210824608,-0.0259617734700441,-0.0184786729514598
1761235168001131300,1.59613134765625,-0.012980886735022,-0.051312681287527,-0.0210748501121997
1761235168019168800,1.614168701171875,-0.0154243474826216,-0.0358883328735828,-0.0041233403608202
1761235168037206800,1.632206787109375,-0.0047342055477201,-0.0080939643085002,0.011148290708661
1761235168055244500,1.65024462890625,-0.0087048299610614,-0.0003054326225537,0.0114537235349416
1761235168073281300,1.66828125,-0.0080939643085002,-0.0025961773935705,-0.00335975876078
1761235168091318300,1.686318359375,-0.0073303831741213,0.0019853119738399,-0.0155770638957619
1761235168109356500,1.7043564453125,-0.0099265603348612,0.0019853119738399,-0.0007635815418325
1761235168127394800,1.722394775390625,-0.0097738439217209,0.0163406450301408,0.0180205255746841
1761235168145431600,1.740431640625,-0.0062613687478005,0.0158824957907199,0.0119118718430399
1761235168163468500,1.758468505859375,-0.0010690141934901,0.0224492978304624,0.001527163083665
1761235168181506600,1.776506591796875,0.0018325957935303,0.0273362193256616,-0.0001527163112768
1761235168199541800,1.794541748046875,-0.0007635815418325,0.0290160998702049,0.019089538604021
1761235168217584600,1.812584716796875,-0.00534507073462,0.0291688162833452,0.0137444678694009
1761235168235615700,1.83061572265625,-0.0109955742955207,0.0157297793775796,0.0054977871477603
1761235168253659100,1.8486591796875,-0.0122173046693205,0.0077885319478809,0.0006108652451075
1761235168271694300,1.8666943359375,-0.009010262787342,0.0106901414692401,0.0074830991216003
1761235168289731300,1.8847314453125,-0.0068722339347004,0.0128281703218817,0.0142026171088218
1761235168307760400,1.902760498046875,-0.0114537235349416,0.001527163083665,0.0041233403608202
1761235168325805600,1.9208056640625,-0.0117591563612222,-0.0171042270958423,0.0019853119738399
1761235168343846000,1.938845947265625,-0.0074830991216003,-0.0157297793775796,0.0024434609804302
1761235168361881000,1.956881103515625,-0.00534507073462,-0.0135917514562606,0.0012217304902151
1761235168379915800,1.974915771484375,0.00167987938039,-0.0175623763352632,-0.001527163083665
1761235168397959000,1.992958984375,0.0003054326225537,-0.0113010071218013,-0.0006108652451075
1761235168415994600,2.01099462890625,0.00137444678694,-0.00335975876078,-0.0108428578823804
1761235168434031900,2.029031982421875,0.0035124751739203,-0.0007635815418325,-0.0224492978304624
1761235168452068400,2.047068359375,-0.0009162978967651,-0.0025961773935705,-0.0149661982432007
1761235168470108200,2.065108154296875,-0.0019853119738399,-0.0068722339347004,-0.0253509078174829
1761235168488144600,2.08314453125,-0.0077885319478809,0.0056505035609006,0.00137444678694
1761235168506181400,2.101181396484375,-0.0061086523346602,0.0207694191485643,-0.0024434609804302
1761235168524218400,2.11921826171875,0.0030543261673301,0.0216857157647609,-0.0114537235349416
1761235168542253300,2.13725341796875,0.0096211275085806,0.0247400421649217,-0.0180205255746841
1761235168560298500,2.155298583984375,0.0138971842825412,0.0245873257517814,-0.0200058370828628
1761235168578331400,2.173331298828125,0.0070249503478407,0.0204639863222837,-0.0178678091615438
1761235168596368600,2.19136865234375,0.0022907445672899,0.0163406450301408,-0.0175623763352632
1761235168614406700,2.20940673828125,-0.0022907445672899,0.0007635815418325,-0.0152716310694813
1761235168632444700,2.227444580078125,-0.0062613687478005,-0.0076358155347406,-0.012980886735022
1761235168650476800,2.245476806640625,-0.0087048299610614,-0.0093156946823,-0.0010690141934901
1761235168668518700,2.2635185546875,-0.0048869219608604,-0.0105374250560998,0.0029016099870204
1761235168686556400,2.281556396484375,-0.0065668015740811,-0.0244346093386411,-0.0061086523346602
1761235168704582700,2.299582763671875,-0.0061086523346602,-0.02122756652534,-0.0083993971347808
1761235168722631200,2.317631103515625,-0.0035124751739203,-0.0093156946823,-0.0067195175215601
1761235168740668200,2.335668212890625,-0.00167987938039,-0.0006108652451075,-0.0047342055477201
1761235168758706200,2.3537060546875,0.0038179077673703,-0.0003054326225537,-0.0172569435089826
1761235168776744400,2.371744384765625,0.0076358155347406,-0.0054977871477603,-0.0219911485910415
1761235168794782000,2.389781982421875,0.0041233403608202,0.0106901414692401,-0.0123700210824608
1761235168812818400,2.407818359375,0.0050396383740007,0.0226020142436027,-0.0161879286170005
1761235168830856400,2.4258564453125,0.0079412478953599,0.0277943685650825,-0.0148134818300604
1761235168848891600,2.4438916015625,0.0030543261673301,0.0294742472469806,-0.0160352122038602
1761235168866932700,2.4619326171875,0.0048869219608604,0.0287106670439243,-0.0242818929255008
1761235168884970200,2.47997021484375,0.0070249503478407,0.0135917514562606,-0.0284052342176437
1761235168903006200,2.498006103515625,0.0109955742955207,0.0062613687478005,-0.0160352122038602
1761235168921044500,2.51604443359375,0.0079412478953599,0.0070249503478407,0.0003054326225537
1761235168939081500,2.53408154296875,0.0030543261673301,-0.0056505035609006,-0.0036651915870606
1761235168957118200,2.5521181640625,-0.001527163083665,-0.0103847095742821,-0.0120645882561802
1761235168975159300,2.5701591796875,-0.0038179077673703,-0.0175623763352632,-0.0126754539087414
1761235168993195000,2.588195068359375,-0.0058032199740409,-0.0181732401251792,-0.001527163083665
1761235169011231500,2.6062314453125,-0.0022907445672899,-0.0018325957935303,0.0164933614432811
1761235169029268200,2.624268310546875,-0.0007635815418325,0.0154243474826216,0.0120645882561802
1761235169047306000,2.642305908203125,-0.00137444678694,0.0213802829384803,-0.0027488935738801
1761235169065344500,2.660344482421875,0.0039706239476799,0.0403171069920063,-0.0024434609804302
1761235169083381500,2.678381591796875,0.0030543261673301,0.0736092627048492,-0.0148134818300604
1761235169101418500,2.69641845703125,0.00167987938039,0.0655152946710586,-0.0195476878434419
1761235169119456500,2.71445654296875,-0.0003054326225537,0.0728456825017929,-0.0032070425804704
1761235169137489200,2.7324892578125,-0.00167987938039,0.0722348168492317,-0.0012217304902151
1761235169155531500,2.750531494140625,0.0019853119738399,0.0655152946710586,-0.0077885319478809
1761235169173568500,2.768568603515625,0.0003054326225537,0.0493273697793483,-0.0080939643085002
1761235169191606300,2.786606201171875,0.0025961773935705,0.0401643887162208,-0.0044287731871008
1761235169209644300,2.804644287109375,0.0064140851609408,0.0325285755097866,-0.0083993971347808
1761235169227681300,2.822681396484375,0.0050396383740007,0.0070249503478407,-0.0183259565383195
1761235169245717200,2.84071728515625,-0.0036651915870606,0.0010690141934901,0.00167987938039
1761235169263757300,2.85875732421875,-0.0009162978967651,0.0003054326225537,0.00137444678694
1761235169281794000,2.8767939453125,-0.0012217304902151,0.0021380283869802,0.0007635815418325
1761235169299831300,2.894831298828125,-0.0004581489483825,-0.0025961773935705,-0.0035124751739203
1761235169317868500,2.91286865234375,0.0009162978967651,-0.0094684110954403,-0.0109955742955207
1761235169335906600,2.930906494140625,0.005192354787141,-0.0050396383740007,0.0018325957935303
1761235169353944600,2.948944580078125,0.0064140851609408,-0.0067195175215601,0.00137444678694
1761235169371979000,2.96697900390625,0.0105374250560998,-0.0088575463742017,-0.0024434609804302
1761235169390020900,2.985020751953125,0.0076358155347406,-0.0073303831741213,-0.0117591563612222
1761235169408056300,3.003056396484375,-0.00167987938039,-0.0027488935738801,0.0003054326225537
1761235169426094000,3.021093994140625,-0.0012217304902151,-0.0024434609804302,-0.00335975876078
1761235169444131000,3.039131103515625,0.0018325957935303,0.0012217304902151,-0.0059559359215199
1761235169462168300,3.057168212890625,0.0001527163112768,-0.001527163083665,-0.0145080499351024
1761235169480203300,3.075203369140625,0.0027488935738801,-0.009010262787342,-0.0048869219608604
1761235169498244400,3.093244384765625,0.0074830991216003,0.0032070425804704,-0.0027488935738801
1761235169516279800,3.11127978515625,0.0093156946823,0.0001527163112768,-0.005192354787141
1761235169534316800,3.12931689453125,0.007177666760981,-0.005192354787141,-0.0076358155347406
1761235169552359400,3.147359375,0.00335975876078,-0.0131336031481623,-0.0160352122038602
1761235169570394600,3.16539453125,0.0068722339347004,-0.020616702735424,-0.0096211275085806
1761235169588431000,3.18343115234375,0.0178678091615438,-0.0258090570569038,0.0006108652451075
1761235169606468000,3.201468017578125,0.0299323964864015,-0.0241291765123605,0.0148134818300604
1761235169624508200,3.219508056640625,0.0279470849782228,-0.0174096599221229,0.020616702735424
1761235169642544000,3.237544189453125,0.0250454749912023,-0.0105374250560998,0.0073303831741213
1761235169660581600,3.25558154296875,0.0244346093386411,-0.0079412478953599,-0.0080939643085002
1761235169678618400,3.273618408203125,0.0267253536731004,0.0048869219608604,-0.0142026171088218
1761235169696656100,3.29165625,0.0174096599221229,0.0235183127224445,-0.0116064399480819
1761235169714693000,3.309693115234375,0.0074830991216003,0.0207694191485643,-0.0134390350431203
1761235169732720600,3.327720703125,-0.0044287731871008,0.0088575463742017,-0.0044287731871008
1761235169750768400,3.345768310546875,-0.009010262787342,-0.005192354787141,-0.0097738439217209
1761235169768806100,3.36380615234375,-0.007177666760981,-0.0120645882561802,-0.0073303831741213
1761235169786844200,3.38184423828125,-0.0024434609804302,-0.0314595587551593,-0.0106901414692401
1761235169804877600,3.399877685546875,0.0021380283869802,-0.0441350154578685,-0.0070249503478407
1761235169822918400,3.41791845703125,0.00335975876078,-0.0594066455960273,0.00137444678694
1761235169840956200,3.4359560546875,0.0022907445672899,-0.0546724386513233,-0.0012217304902151
1761235169858994400,3.453994384765625,0.00167987938039,-0.0387899428606033,-0.0054977871477603
1761235169877031000,3.472031005859375,-0.0018325957935303,-0.0395535230636596,-0.0193949714303016
1761235169895068200,3.490068115234375,0.0083993971347808,-0.0435241498053073,-0.0259617734700441
1761235169913106000,3.50810595703125,0.0105374250560998,-0.0526871271431446,-0.012980886735022
1761235169931144400,3.52614453125,0.005192354787141,-0.0458148941397666,0.00167987938039
1761235169949181200,3.54418115234375,0.0012217304902151,-0.0198531206697225,0.0030543261673301
1761235169967218200,3.56221826171875,-0.0018325957935303,-0.0058032199740409,-0.0022907445672899
1761235169985256400,3.58025634765625,-0.0004581489483825,0.0163406450301408,-0.0093156946823
1761235170003294200,3.598294189453125,-0.0041233403608202,0.012980886735022,-0.0197004042565822
1761235170021331200,3.616331298828125,0.00534507073462,0.0007635815418325,-0.0236710291355848
1761235170039368200,3.6343681640625,0.0117591563612222,-0.0068722339347004,-0.0105374250560998
1761235170057406200,3.65240625,0.0135917514562606,-0.0006108652451075,-0.0044287731871008
1761235170075444000,3.67044384765625,0.0152716310694813,0.0054977871477603,-0.0064140851609408
1761235170093481000,3.68848095703125,0.0221438650041818,-0.0097738439217209,-0.0172569435089826
1761235170111518200,3.706518310546875,0.0152716310694813,-0.0181732401251792,-0.0113010071218013
1761235170129556200,3.72455615234375,0.0064140851609408,-0.0100792767480015,-0.0056505035609006
1761235170147594200,3.74259423828125,0.0029016099870204,-0.0006108652451075,0.00167987938039
1761235170165630700,3.760630615234375,-0.0001527163112768,0.0062613687478005,-0.007177666760981
1761235170183669000,3.7786689453125,0.0003054326225537,0.0050396383740007,-0.0094684110954403
1761235170201703000,3.796702880859375,0.0021380283869802,0.0074830991216003,-0.0091629782691597
1761235170219747600,3.81474755859375,-0.0006108652451075,0.01328631862998,-0.00167987938039
1761235170237781200,3.83278125,-0.0024434609804302,0.0137444678694009,-0.0079412478953599
1761235170255818000,3.85081787109375,-0.0038179077673703,-0.0010690141934901,-0.0085521135479211
1761235170273846500,3.868846435546875,-0.0068722339347004,-0.0244346093386411,-0.0079412478953599
1761235170291894300,3.886894287109375,-0.0065668015740811,-0.0387899428606033,-0.0010690141934901
1761235170309930800,3.9049306640625,-0.001527163083665,-0.0438295826315879,-0.00534507073462
1761235170327968300,3.92296826171875,-0.00137444678694,-0.0534507073462009,-0.0080939643085002
1761235170346006300,3.94100634765625,0.0007635815418325,-0.0339030213654041,0.0018325957935303
1761235170364044000,3.9590439453125,0.0041233403608202,-0.0241291765123605,0.0019853119738399
1761235170382080800,3.977080810546875,0.0032070425804704,-0.0213802829384803,-0.0032070425804704
1761235170400114700,3.99511474609375,-0.001527163083665,-0.0140499006956815,-0.0083993971347808
1761235170418156300,4.01315625,-0.0012217304902151,-0.0135917514562606,-0.0178678091615438
1761235170436194300,4.0311943359375,-0.0004581489483825,-0.0018325957935303,-0.0113010071218013
1761235170454231300,4.049231201171875,-0.0009162978967651,0.0088575463742017,-0.0088575463742017
1761235170472269000,4.06726904296875,-0.0073303831741213,0.015118914656341,-0.0025961773935705
1761235170490306000,4.08530615234375,-0.0077885319478809,0.0103847095742821,-0.0035124751739203
1761235170508344300,4.10334423828125,-0.0064140851609408,-0.00137444678694,0.0064140851609408
1761235170526381000,4.121381103515625,-0.00137444678694,-0.0036651915870606,0.0116064399480819
1761235170544400100,4.139400146484375,0.001527163083665,-0.005192354787141,0.0027488935738801
1761235170562455800,4.157455810546875,0.0027488935738801,-0.0145080499351024,-0.0137444678694009
1761235170580493800,4.175493896484375,0.0003054326225537,-0.0279470849782228,-0.0093156946823
1761235170598531000,4.193531005859375,-0.0076358155347406,-0.032223142683506,0.005192354787141
1761235170616568000,4.211568115234375,-0.012980886735022,-0.0455094613134861,-0.00137444678694
1761235170634606300,4.2296064453125,-0.0117591563612222,-0.0427605658769607,-0.0146607663482427
1761235170652643800,4.247643798828125,-0.0140499006956815,-0.0241291765123605,-0.0229074470698833
1761235170670680800,4.265680908203125,-0.0216857157647609,-0.0064140851609408,-0.015118914656341
1761235170688718300,4.28371826171875,-0.0261144898831844,-0.0180205255746841,-0.02122756652534
1761235170706752300,4.301752197265625,-0.0287106670439243,-0.028557950630784,-0.0149661982432007
1761235170724797400,4.31979736328125,-0.0302378293126821,-0.0157297793775796,-0.0105374250560998
1761235170742830800,4.337830810546875,-0.0224492978304624,-0.0160352122038602,-0.00534507073462
1761235170760867800,4.355867919921875,-0.0134390350431203,-0.0122173046693205,-0.00167987938039
1761235170778905600,4.373905517578125,-0.0065668015740811,-0.0012217304902151,0.0004581489483825
1761235170796944400,4.3919443359375,-0.0128281703218817,-0.0138971842825412,-0.0080939643085002
1761235170814981400,4.4099814453125,-0.0204639863222837,-0.027030786499381,-0.01328631862998
1761235170833017900,4.428017822265625,-0.0239764600992202,-0.0236710291355848,-0.0105374250560998
1761235170851056000,4.44605615234375,-0.0262672062963247,-0.0085521135479211,-0.0073303831741213
1761235170869092000,4.464092041015625,-0.028557950630784,0.0076358155347406,-0.0102319931611418
1761235170887133000,4.4821328125,-0.0331394411623477,0.0164933614432811,-0.0123700210824608
1761235170905168000,4.50016796875,-0.0348193198442459,0.0183259565383195,-0.0160352122038602
1761235170923192000,4.518192138671875,-0.0357356183230876,0.0067195175215601,-0.01328631862998
1761235170941244000,4.536243896484375,-0.0319177098572254,-0.0027488935738801,-0.0198531206697225
1761235170959281200,4.55428125,-0.0302378293126821,-0.0128281703218817,-0.0335975885391235
1761235170977318000,4.57231787109375,-0.032223142683506,-0.02122756652534,-0.0293215326964855
1761235170995356200,4.590356201171875,-0.0374154970049858,-0.036499198526144,-0.0175623763352632
1761235171013394000,4.608393798828125,-0.0332921557128429,-0.0589484944939613,-0.0058032199740409
1761235171031430700,4.6264306640625,-0.0235183127224445,-0.0890336111187934,0.0036651915870606
1761235171049467600,4.644467529296875,-0.0181732401251792,-0.1069014146924018,0.016951510682702
1761235171067506000,4.662505859375,-0.0213802829384803,-0.1076650023460388,0.0180205255746841
1761235171085544000,4.6805439453125,-0.0328340083360672,-0.0907134860754013,0.0097738439217209
1761235171103580700,4.69858056640625,-0.0430659987032413,-0.0720821022987365,-0.0027488935738801
1761235171121617700,4.71661767578125,-0.0404698215425014,-0.0441350154578685,-0.0161879286170005
1761235171139655700,4.73465576171875,-0.0371100641787052,-0.0316122770309448,-0.0158824957907199
1761235171157694000,4.75269384765625,-0.0410806871950626,-0.0226020142436027,-0.0074830991216003
1761235171175730000,4.77072998046875,-0.0369573459029197,-0.0164933614432811,-0.0140499006956815
1761235171193768400,4.7887685546875,-0.0201585534960031,-0.0293215326964855,-0.0189368221908807
1761235171211805700,4.8068056640625,-0.0068722339347004,-0.0404698215425014,-0.0122173046693205
1761235171229843700,4.82484375,0.0038179077673703,-0.04505131021142,-0.0024434609804302
1761235171247880700,4.842880615234375,0.0097738439217209,-0.0410806871950626,-0.0083993971347808
1761235171265916700,4.860916748046875,0.0035124751739203,-0.0569631829857826,-0.016951510682702
1761235171283956700,4.878956787109375,-0.0036651915870606,-0.0529925599694252,-0.0143553335219621
1761235171301993700,4.89699365234375,-0.0003054326225537,-0.0606283769011497,-0.0258090570569038
1761235171320031000,4.915031005859375,0.0077885319478809,-0.0630718395113945,-0.0161879286170005
1761235171338067700,4.933067626953125,0.0032070425804704,-0.0496328026056289,0.0038179077673703
1761235171356105700,4.951105712890625,-0.0050396383740007,-0.0447458773851394,0.00167987938039
1761235171374143000,4.96914306640625,-0.0036651915870606,-0.040775254368782,0.0021380283869802
1761235171392181500,4.987181396484375,-0.0001527163112768,-0.0226020142436027,0.0122173046693205
1761235171410214100,5.005214111328125,0.0029016099870204,-0.015118914656341,0.0100792767480015
1761235171428243500,5.023243408203125,0.0085521135479211,-0.0054977871477603,0.0024434609804302
1761235171446281700,5.04128173828125,0.0105374250560998,-0.00167987938039,0.0149661982432007
1761235171464334600,5.05933447265625,0.0160352122038602,0.0160352122038602,0.0128281703218817
1761235171482367500,5.077367431640625,0.0226020142436027,0.009010262787342,0.0035124751739203
1761235171500405800,5.09540576171875,0.0230601634830236,0.0164933614432811,-0.0032070425804704
1761235171518443800,5.11344384765625,0.0161879286170005,0.0387899428606033,0.0025961773935705
1761235171536479500,5.1314794921875,0.0119118718430399,0.0342084541916847,-0.0171042270958423
1761235171554519300,5.149519287109375,0.0140499006956815,0.0155770638957619,-0.028557950630784
1761235171572555800,5.1675556640625,0.0096211275085806,0.0103847095742821,-0.0022907445672899
1761235171590589000,5.1855888671875,0.0065668015740811,-0.0073303831741213,-0.0042760567739605
1761235171608618800,5.20361865234375,-0.0027488935738801,-0.0911716371774673,-0.0558941699564456
1761235171626667800,5.221667724609375,-0.0059559359215199,-0.133474051952362,-0.0461203269660472
1761235171644705500,5.23970556640625,-0.0106901414692401,-0.0531452745199203,0.032223142683506
1761235171662743600,5.25774365234375,-0.0061086523346602,-0.042302418500185,0.0171042270958423
1761235171680780800,5.27578076171875,-0.0004581489483825,-0.0591012127697467,-0.0142026171088218
1761235171698817300,5.2938173828125,0.0009162978967651,-0.0432187169790267,-0.0077885319478809
1761235171716855600,5.31185546875,0.0021380283869802,-0.0256563406437635,-0.0010690141934901
1761235171734893800,5.329893798828125,0.00137444678694,-0.0236710291355848,0.0044287731871008
1761235171752930600,5.3479306640625,0.0038179077673703,-0.034972034394741,0.001527163083665
1761235171770967600,5.365967529296875,0.0038179077673703,-0.040775254368782,0.007177666760981
1761235171789005600,5.384005615234375,0.0054977871477603,-0.0447458773851394,-0.0019853119738399
1761235171807043600,5.402043701171875,0.0021380283869802,-0.0369573459029197,0.0004581489483825
1761235171825080600,5.42008056640625,-0.0080939643085002,-0.0384845100343227,-0.0065668015740811
1761235171843114500,5.438114501953125,-0.0094684110954403,-0.0340557359158992,-0.0117591563612222
1761235171861158100,5.456158203125,-0.0010690141934901,-0.0152716310694813,-0.0120645882561802
1761235171879193300,5.474193359375,0.0102319931611418,0.0096211275085806,-0.0198531206697225
1761235171897230300,5.492230224609375,-0.0036651915870606,0.0054977871477603,-0.0148134818300604
1761235171915267300,5.510267333984375,0.0119118718430399,0.0520762614905834,0.0041233403608202
1761235192439719200,0.11771923828125,0.00534507073462,-0.0122173046693205,0.0426078513264656
1761235192450944800,0.12894482421875,0.0036651915870606,0.0021380283869802,0.0435241498053073
1761235192468979700,0.146979736328125,-0.0010690141934901,0.0131336031481623,0.0355829000473022
1761235192487017000,0.165016845703125,-0.00137444678694,0.0094684110954403,-0.0171042270958423
1761235192505054500,0.183054443359375,0.0067195175215601,0.0019853119738399,-0.0313068442046642
1761235192523091700,0.201091796875,0.0123700210824608,0.0039706239476799,-0.0224492978304624
1761235192541130000,0.2191298828125,0.0054977871477603,-0.0041233403608202,-0.0054977871477603
1761235192559166700,0.237166748046875,0.0116064399480819,0.0004581489483825,0.0235183127224445
1761235192577204500,0.25520458984375,0.0293215326964855,-0.0242818929255008,0.0236710291355848
1761235192595242000,0.273241943359375,0.0386372283101081,-0.0600175112485885,-0.038026362657547
1761235192613279500,0.291279541015625,0.0369573459029197,-0.0835358202457428,-0.0558941699564456
1761235192631317000,0.30931689453125,0.0355829000473022,-0.0789543315768241,-0.041233405470848
1761235192649342700,0.3273427734375,0.0497855171561241,-0.0813977941870689,-0.039248090237379
1761235192667392000,0.34539208984375,0.0549778714776039,-0.0612392425537109,-0.0187841057777404
1761235192685429500,0.363429443359375,0.0421497002243995,-0.0445931628346443,-0.0258090570569038
1761235192703466800,0.381466796875,0.0326812900602817,-0.0345138870179653,-0.0334448739886283
1761235192721504800,0.3995048828125,0.0319177098572254,-0.0239764600992202,-0.0358883328735828
1761235192739542000,0.4175419921875,0.0308486949652433,0.0024434609804302,-0.0340557359158992
1761235192757579300,0.435579345703125,0.0186313893646001,0.0082466807216405,-0.0201585534960031
1761235192775617500,0.453617431640625,0.0215329993516206,0.032223142683506,-0.0054977871477603
1761235192793653000,0.471653076171875,0.0152716310694813,0.0554360225796699,0.0058032199740409
1761235192811694000,0.489694091796875,0.007177666760981,0.0708603709936142,0.0012217304902151
1761235192829730000,0.50772998046875,-0.0056505035609006,0.0743728429079055,-0.0009162978967651
1761235192847766000,0.52576611328125,-0.0080939643085002,0.0551305897533893,0.0255036242306232
1761235192865806000,0.54380615234375,-0.0024434609804302,0.0870482996106147,0.0247400421649217
1761235192883842300,0.56184228515625,-0.0021380283869802,0.1287398487329483,0.0213802829384803
1761235192901876000,0.5798759765625,-0.0096211275085806,0.1679879426956176,0.0352774672210216
1761235192919905500,0.597905517578125,-0.011148290708661,0.2157881408929824,0.0597120784223079
1761235192937951700,0.61595166015625,-0.0172569435089826,0.2507601976394653,0.0726929605007171
1761235192955997400,0.63399755859375,-0.0320704244077205,0.2849686443805694,0.0780380368232727
1761235192974030000,0.652030029296875,-0.0401643887162208,0.33292156457901,0.0959058403968811
1761235192992067300,0.6700673828125,-0.0230601634830236,0.323605865240097,0.1088867336511612
1761235193010104600,0.6881044921875,-0.0024434609804302,0.265573650598526,0.1102611795067787
1761235193028137700,0.7061376953125,0.0195476878434419,0.1896736621856689,0.1240056455135345
1761235193046179800,0.724179931640625,0.0239764600992202,0.1178969889879226,0.0759000033140182
1761235193064217300,0.74221728515625,0.0259617734700441,0.0439822971820831,0.0629191175103187
1761235193082254600,0.760254638671875,0.0474947728216648,-0.0334448739886283,0.0529925599694252
1761235193100292400,0.778292236328125,0.0606283769011497,-0.0936150997877121,0.030695978552103
1761235193118329600,0.79632958984375,0.048105638474226,-0.1273654103279113,-0.0021380283869802
1761235193136367400,0.814367431640625,0.038026362657547,-0.1200350224971771,-0.0184786729514598
1761235193154405000,0.832405029296875,0.0325285755097866,-0.0951422601938247,-0.0064140851609408
1761235193172442000,0.850442138671875,0.0314595587551593,-0.093156948685646,-0.0308486949652433
1761235193190479600,0.868479736328125,0.01328631862998,-0.0766635909676551,-0.0390953756868839
1761235193208517000,0.88651708984375,0.0245873257517814,-0.0606283769011497,-0.0109955742955207
1761235193226554600,0.9045546875,0.041233405470848,-0.0601702257990837,0.00534507073462
1761235193244592400,0.92259228515625,0.032223142683506,-0.0751364231109619,-0.0197004042565822
1761235193262630000,0.9406298828125,0.0280998013913631,-0.1180497109889984,-0.0184786729514598
1761235193280667100,0.958667236328125,0.0561996027827262,-0.1470658034086227,-0.0253509078174829
1761235193298705200,0.976705078125,0.0575740486383438,-0.1325577646493911,-0.0236710291355848
1761235193325756000,1.003755859375,0.0222965814173221,-0.0424551330506801,-0.0042760567739605
1761235193343799600,1.021799560546875,0.0100792767480015,-0.0247400421649217,0.0025961773935705
1761235193361836000,1.0398359375,0.0251981914043426,-0.0160352122038602,-0.0006108652451075
1761235193379874600,1.05787451171875,0.0160352122038602,0.0018325957935303,-0.0149661982432007
1761235193397911000,1.0759111328125,0.0109955742955207,0.0161879286170005,-0.0125227374956011
1761235193415947500,1.093947509765625,0.0041233403608202,0.0108428578823804,-0.0236710291355848
1761235193433987300,1.1119873046875,0.0083993971347808,-0.0073303831741213,-0.0348193198442459
1761235193452024800,1.13002490234375,0.0198531206697225,-0.0178678091615438,-0.0305432621389627
1761235193470061300,1.148061279296875,0.0238237436860799,-0.0025961773935705,-0.0219911485910415
1761235193488098600,1.1660986328125,0.0241291765123605,-0.0067195175215601,-0.0291688162833452
1761235193506136000,1.184135986328125,0.0287106670439243,-0.0166460778564214,-0.0323758572340011
1761235193524174800,1.2021748046875,0.0166460778564214,-0.0087048299610614,-0.0294742472469806
1761235193542211000,1.220211181640625,0.0138971842825412,-0.0323758572340011,-0.0352774672210216
1761235193560237600,1.238237548828125,0.007177666760981,-0.0424551330506801,-0.040775254368782
1761235193578286300,1.256286376953125,-0.001527163083665,-0.0245873257517814,-0.0215329993516206
1761235193596324600,1.27432470703125,-0.0097738439217209,-0.0076358155347406,-0.0149661982432007
1761235193614361600,1.292361572265625,-0.0154243474826216,-0.0047342055477201,-0.016951510682702
1761235193632398800,1.31039892578125,-0.0178678091615438,0.0083993971347808,-0.0120645882561802
1761235193650433300,1.328433349609375,-0.0181732401251792,0.0216857157647609,0.0036651915870606
1761235193668478000,1.34647802734375,-0.0167987942695617,0.0093156946823,0.0105374250560998
1761235193686511600,1.36451171875,-0.0152716310694813,0.0025961773935705,0.0059559359215199
1761235193704541400,1.38254150390625,-0.020616702735424,-0.0204639863222837,-0.00335975876078
1761235193722576000,1.400575927734375,-0.02122756652534,-0.0387899428606033,-0.0183259565383195
1761235193740620300,1.418620361328125,-0.0172569435089826,-0.0311541277915239,-0.0137444678694009
1761235193758661400,1.436661376953125,-0.0172569435089826,-0.0297796800732612,0.0039706239476799
1761235193776699000,1.454698974609375,-0.0119118718430399,-0.0409279726445674,-0.0085521135479211
1761235193794736000,1.472736083984375,-0.0200058370828628,-0.0345138870179653,-0.0080939643085002
1761235193812774700,1.490774658203125,-0.015118914656341,-0.0235183127224445,0.0027488935738801
1761235193830811100,1.50881103515625,-0.0140499006956815,-0.022754730656743,-0.007177666760981
1761235193848849000,1.526848876953125,-0.0126754539087414,-0.0261144898831844,-0.0134390350431203
1761235193866886400,1.544886474609375,-0.0076358155347406,-0.0313068442046642,-0.0047342055477201
1761235193884925200,1.56292529296875,-0.0064140851609408,-0.0313068442046642,-0.0137444678694009
1761235193902961400,1.58096142578125,-0.019089538604021,-0.0244346093386411,-0.0032070425804704
1761235193920998700,1.59899853515625,-0.0210748501121997,-0.0079412478953599,0.0025961773935705
1761235193939036700,1.61703662109375,-0.0122173046693205,-0.0044287731871008,0.0114537235349416
1761235193957072100,1.635072021484375,0.0035124751739203,-0.022754730656743,0.0137444678694009
1761235193975114200,1.6531142578125,0.0145080499351024,-0.0250454749912023,0.0004581489483825
1761235193993148700,1.671148681640625,0.0001527163112768,-0.0143553335219621,0.0019853119738399
1761235194011186400,1.6891865234375,-0.0050396383740007,-0.0082466807216405,0.0215329993516206
1761235194029225000,1.707224853515625,0.0045814891345798,-0.0035124751739203,0.0308486949652433
1761235194047261400,1.725261474609375,0.0093156946823,-0.0276416521519422,0.0325285755097866
1761235194065299000,1.743298828125,0.01328631862998,-0.0363464802503585,0.0032070425804704
1761235194083336200,1.761336181640625,0.0059559359215199,-0.0383317954838275,0.0019853119738399
1761235194101375200,1.779375244140625,0.0087048299610614,-0.0554360225796699,0.0149661982432007
1761235194119408400,1.797408447265625,0.0180205255746841,-0.0780380368232727,0.0067195175215601
1761235194137452000,1.8154521484375,0.0236710291355848,-0.0923933684825897,0.0042760567739605
1761235194155483600,1.833483642578125,0.028557950630784,-0.0937678143382072,-0.0103847095742821
1761235194173528000,1.851528076171875,0.0235183127224445,-0.0604756586253643,-0.0029016099870204
1761235194191561200,1.869561279296875,0.0161879286170005,-0.0337503030896186,0.012980886735022
1761235194209599000,1.887598876953125,0.009010262787342,-0.0300851128995418,0.0137444678694009
1761235194227627300,1.905627197265625,-0.0024434609804302,-0.0140499006956815,0.0103847095742821
1761235194245674500,1.923674560546875,-0.0050396383740007,0.0003054326225537,0.0195476878434419
1761235194263712500,1.94171240234375,0.0083993971347808,0.0047342055477201,0.0221438650041818
1761235194281748700,1.959748779296875,0.0039706239476799,0.0265726372599601,0.011148290708661
1761235194299783400,1.977783447265625,-0.0077885319478809,0.0244346093386411,-0.0006108652451075
1761235194317828000,1.995828125,-0.00335975876078,0.0239764600992202,0.0142026171088218
1761235194335861800,2.01386181640625,-0.007177666760981,0.0201585534960031,0.001527163083665
1761235194353899000,2.03189892578125,-0.0157297793775796,0.0149661982432007,0.0074830991216003
1761235194371936500,2.0499365234375,-0.0067195175215601,0.0077885319478809,0.009010262787342
1761235194389975300,2.067975341796875,0.0047342055477201,-0.0054977871477603,-0.0012217304902151
1761235194408011800,2.08601171875,0.0004581489483825,0.0064140851609408,-0.0097738439217209
1761235194426049000,2.104049072265625,-0.0122173046693205,0.0242818929255008,0.0082466807216405
1761235194444086500,2.12208642578125,-0.0113010071218013,0.0308486949652433,0.0180205255746841
1761235194462124800,2.140124755859375,-0.0125227374956011,0.0390953756868839,0.0094684110954403
1761235194480157700,2.15815771484375,-0.0193949714303016,0.0314595587551593,0.0099265603348612
1761235194498199000,2.176198974609375,-0.0145080499351024,0.0192422550171613,-0.0006108652451075
1761235194516236800,2.19423681640625,-0.0114537235349416,0.0207694191485643,-0.0105374250560998
1761235194534275600,2.212275634765625,-0.0123700210824608,0.0452040284872055,0.00335975876078
1761235194552311800,2.230311767578125,-0.0154243474826216,0.0398589558899402,0.0061086523346602
1761235194570344400,2.248344482421875,-0.0074830991216003,0.0204639863222837,0.00137444678694
1761235194588386600,2.266386474609375,-0.0137444678694009,0.0250454749912023,0.0019853119738399
1761235194606425300,2.28442529296875,-0.0245873257517814,0.036499198526144,0.0082466807216405
1761235194624451300,2.302451416015625,-0.0192422550171613,0.0381790772080421,0.0099265603348612
1761235194642502100,2.320502197265625,-0.0073303831741213,0.0184786729514598,-0.0030543261673301
1761235194660536600,2.33853662109375,0.0047342055477201,0.0088575463742017,-0.0105374250560998
1761235194678574800,2.356574951171875,0.0010690141934901,0.030695978552103,-0.0018325957935303
1761235194696611600,2.374611572265625,-0.0166460778564214,0.0429132841527462,0.0186313893646001
1761235194714649000,2.392649169921875,-0.0143553335219621,0.0258090570569038,0.0158824957907199
1761235194732686800,2.410686767578125,-0.0065668015740811,0.0282525178045034,0.0032070425804704
1761235194750725400,2.428725341796875,-0.0070249503478407,0.0255036242306232,0.0067195175215601
1761235194768760600,2.446760498046875,-0.0116064399480819,0.0219911485910415,-0.0027488935738801
1761235194786798600,2.464798583984375,-0.0047342055477201,0.0181732401251792,0.0064140851609408
1761235194804838700,2.482838623046875,-0.0029016099870204,0.0177150927484035,0.005192354787141
1761235194822874000,2.5008740234375,-0.0079412478953599,0.0085521135479211,0.0064140851609408
1761235194840913000,2.518912841796875,-0.011148290708661,0.0059559359215199,0.0029016099870204
1761235194858949000,2.53694921875,-0.0059559359215199,0.0083993971347808,0.0032070425804704
1761235194876986600,2.554986572265625,-0.001527163083665,0.0146607663482427,-0.0010690141934901
1761235194895013400,2.573013427734375,-0.00534507073462,0.0097738439217209,-0.0030543261673301
1761235194913062000,2.591061767578125,-0.0012217304902151,-0.0012217304902151,-0.005192354787141
1761235194931099100,2.60909912109375,-0.005192354787141,-0.0035124751739203,-0.0100792767480015
1761235194949136600,2.62713671875,-0.0181732401251792,0.024892758578062,0.0039706239476799
1761235194967175400,2.645175537109375,-0.0339030213654041,0.0763581544160842,0.0291688162833452
1761235194985211600,2.663211669921875,-0.0342084541916847,0.0795651972293853,0.0401643887162208
1761235195003249400,2.68124951171875,-0.0097738439217209,0.0342084541916847,0.019089538604021
1761235195021287000,2.699286865234375,0.001527163083665,-0.011148290708661,0.00137444678694
1761235195039325400,2.717325439453125,-0.0061086523346602,-0.0067195175215601,-0.0042760567739605
1761235195057361700,2.735361572265625,-0.0145080499351024,0.0116064399480819,0.0087048299610614
1761235195075399400,2.7533994140625,-0.0258090570569038,0.0273362193256616,0.0276416521519422
1761235195093437000,2.77143701171875,-0.0120645882561802,0.0106901414692401,0.0282525178045034
1761235195111475500,2.789475341796875,-0.0007635815418325,-0.0193949714303016,0.00137444678694
1761235195129511700,2.80751171875,-0.0138971842825412,-0.0009162978967651,-0.005192354787141
1761235195147549200,2.825549072265625,-0.0259617734700441,0.0140499006956815,0.0160352122038602
1761235195165587000,2.8435869140625,-0.0171042270958423,0.0186313893646001,0.0097738439217209
1761235195183625500,2.86162548828125,-0.0080939643085002,0.0232128798961639,0.0166460778564214
1761235195201661700,2.87966162109375,-0.00167987938039,0.0134390350431203,0.0094684110954403
1761235195219699700,2.89769970703125,-0.0054977871477603,-0.0019853119738399,-0.0018325957935303
1761235195237736700,2.91573681640625,-0.0042760567739605,-0.0039706239476799,-0.0004581489483825
1761235195255774200,2.933774169921875,-0.0047342055477201,0.00534507073462,0.0077885319478809
1761235195273810700,2.951810791015625,-0.0045814891345798,0.012980886735022,0.0018325957935303
1761235195291850800,2.969850830078125,-0.0024434609804302,0.0288633834570646,0.0082466807216405
1761235195309888000,2.987887939453125,0.0,0.0259617734700441,0.0178678091615438
1761235195327925200,3.00592529296875,0.005192354787141,0.0004581489483825,0.0154243474826216
1761235195345961700,3.023961669921875,0.0073303831741213,-0.019089538604021,-0.0018325957935303
1761235195363999200,3.041999267578125,0.0035124751739203,-0.0221438650041818,0.0025961773935705
1761235195382037000,3.060037109375,0.0004581489483825,-0.0149661982432007,0.007177666760981
1761235195400075800,3.07807568359375,0.0091629782691597,-0.0154243474826216,0.0117591563612222
1761235195418112000,3.096112060546875,0.0138971842825412,-0.0297796800732612,-0.0027488935738801
1761235195436149200,3.114149169921875,0.0183259565383195,-0.0187841057777404,-0.0003054326225537
1761235195454184400,3.132184326171875,0.00335975876078,-0.0180205255746841,0.0045814891345798
1761235195472228600,3.150228515625,-0.0047342055477201,-0.0161879286170005,0.0047342055477201
1761235195490258000,3.1682578125,0.0032070425804704,0.0059559359215199,0.0145080499351024
1761235195508299300,3.18629931640625,0.0001527163112768,0.0218384321779012,0.0174096599221229
1761235195526336800,3.204336669921875,0.0009162978967651,0.0180205255746841,0.0142026171088218
1761235195544364500,3.222364501953125,0.0032070425804704,-0.00534507073462,0.00137444678694
1761235195562416400,3.24041650390625,-0.0019853119738399,-0.0339030213654041,0.0024434609804302
1761235195580449800,3.25844970703125,0.0048869219608604,-0.0395535230636596,-0.0045814891345798
1761235195598486800,3.27648681640625,0.0100792767480015,-0.0125227374956011,0.016951510682702
1761235195616525800,3.29452587890625,0.009010262787342,0.0041233403608202,0.0134390350431203
1761235195634554600,3.3125546875,0.0009162978967651,-0.0093156946823,0.0142026171088218
1761235195652601000,3.33060107421875,0.0119118718430399,-0.0439822971820831,0.0160352122038602
1761235195670637000,3.348636962890625,0.02122756652534,-0.0697913542389869,0.0025961773935705
1761235195688675800,3.36667578125,0.0181732401251792,-0.0714712366461753,-0.0035124751739203
1761235195706711800,3.3847119140625,0.0113010071218013,-0.0332921557128429,-0.0054977871477603
1761235195724753700,3.402753662109375,0.0142026171088218,-0.0024434609804302,0.01328631862998
1761235195742787000,3.420787109375,0.0103847095742821,-0.0106901414692401,0.0091629782691597
1761235195760825300,3.438825439453125,0.0018325957935303,-0.0077885319478809,-0.0004581489483825
1761235195778862000,3.456862060546875,0.0003054326225537,0.0068722339347004,0.0102319931611418
1761235195796899300,3.4748994140625,0.0030543261673301,0.0189368221908807,0.0041233403608202
1761235195814936800,3.492936767578125,0.0062613687478005,0.0160352122038602,0.0091629782691597
1761235195832975600,3.5109755859375,0.0074830991216003,0.0262672062963247,0.0050396383740007
1761235195851012400,3.529012451171875,0.0042760567739605,0.0201585534960031,0.0106901414692401
1761235195869049600,3.547049560546875,0.0080939643085002,0.0067195175215601,0.0088575463742017
1761235195887087000,3.565087158203125,0.0099265603348612,-0.0126754539087414,-0.00335975876078
1761235195905125600,3.583125732421875,0.0097738439217209,-0.0160352122038602,0.0050396383740007
1761235195923161900,3.601161865234375,0.0186313893646001,-0.0091629782691597,0.0064140851609408
1761235195941199600,3.61919970703125,0.0065668015740811,-0.0056505035609006,0.0088575463742017
1761235195959236600,3.637236572265625,0.0068722339347004,-0.0152716310694813,0.0061086523346602
1761235195977276400,3.6552763671875,0.0035124751739203,-0.0218384321779012,0.0058032199740409
1761235195995312000,3.67331201171875,0.0096211275085806,-0.0328340083360672,0.00534507073462
1761235196013349400,3.691349365234375,0.0076358155347406,-0.00534507073462,-0.0022907445672899
1761235196031387000,3.709386962890625,0.00534507073462,0.0258090570569038,0.0178678091615438
1761235196049425700,3.72742578125,0.00534507073462,0.0198531206697225,0.0167987942695617
1761235196067462100,3.745462158203125,0.0009162978967651,0.0135917514562606,0.0035124751739203
1761235196085499600,3.763499755859375,0.0027488935738801,0.0061086523346602,0.0082466807216405
1761235196103537200,3.781537109375,0.0076358155347406,-0.0048869219608604,-0.0030543261673301
1761235196121573600,3.79957373046875,-0.0050396383740007,0.0096211275085806,-0.0054977871477603
1761235196139614200,3.8176142578125,0.0010690141934901,0.0113010071218013,0.005192354787141
1761235196157649700,3.835649658203125,0.0027488935738801,0.0045814891345798,0.0042760567739605
1761235196175686100,3.85368603515625,0.007177666760981,-0.0181732401251792,0.007177666760981
1761235196193723000,3.871722900390625,-0.0030543261673301,-0.0268780700862407,0.0018325957935303
1761235196211762200,3.88976220703125,-0.0009162978967651,-0.0377209298312664,0.0082466807216405
1761235196229799700,3.907799560546875,0.0042760567739605,-0.0467311926186084,-0.0012217304902151
1761235196247837200,3.925837158203125,0.0054977871477603,-0.0332921557128429,0.0012217304902151
1761235196265875700,3.943875732421875,0.0019853119738399,-0.0276416521519422,0.0100792767480015
1761235196283912000,3.961911865234375,0.0018325957935303,-0.0455094613134861,0.0019853119738399
1761235196301949400,3.979949462890625,0.0030543261673301,-0.0441350154578685,0.0010690141934901
1761235196319987500,3.997987548828125,0.0027488935738801,-0.0310014113783836,0.0022907445672899
1761235196338026000,4.01602587890625,0.0001527163112768,-0.0161879286170005,0.0109955742955207
1761235196356061000,4.03406103515625,0.0022907445672899,0.0018325957935303,0.0105374250560998
1761235196374101000,4.05210107421875,-0.0018325957935303,0.0003054326225537,0.0137444678694009
1761235196392125400,4.07012548828125,0.0001527163112768,-0.0215329993516206,0.0047342055477201
1761235196410172400,4.08817236328125,-0.0045814891345798,-0.0105374250560998,-0.0044287731871008
1761235196428212200,4.106212158203125,-0.0025961773935705,0.0097738439217209,0.0048869219608604
1761235196446249700,4.124249755859375,-0.0061086523346602,0.0216857157647609,0.0059559359215199
1761235196464282400,4.142282470703125,0.0048869219608604,0.0108428578823804,0.00167987938039
1761235196482325800,4.16032568359375,0.012980886735022,0.0096211275085806,-0.0009162978967651
1761235196500362000,4.178362060546875,0.0157297793775796,0.0062613687478005,0.0145080499351024
1761235196518400000,4.19639990234375,0.0235183127224445,-0.0012217304902151,0.0054977871477603
1761235196536437200,4.214437255859375,0.0097738439217209,-0.0003054326225537,0.0006108652451075
1761235196554476000,4.23247607421875,-0.0012217304902151,0.0067195175215601,0.0077885319478809
1761235196572512000,4.250511962890625,0.0044287731871008,0.0048869219608604,0.0064140851609408
1761235196590550000,4.268550048828125,0.00167987938039,0.007177666760981,-0.0025961773935705
1761235196608587500,4.28658740234375,-0.00335975876078,0.0187841057777404,0.0024434609804302
1761235196626623700,4.304623779296875,-0.00167987938039,0.0140499006956815,0.0009162978967651
1761235196644664000,4.3226640625,0.0010690141934901,0.0022907445672899,-0.0067195175215601
1761235196662699800,4.34069970703125,-0.0054977871477603,-0.0024434609804302,-0.01328631862998
1761235196680737000,4.358737060546875,-0.0080939643085002,-0.00335975876078,-0.0047342055477201
1761235196698775600,4.376775634765625,-0.0029016099870204,-0.0096211275085806,-0.0100792767480015
1761235196716812500,4.3948125,0.0080939643085002,-0.032223142683506,-0.0210748501121997
1761235196734850000,4.41285009765625,0.0099265603348612,-0.0329867228865623,-0.0198531206697225
1761235196752887300,4.43088720703125,0.0108428578823804,-0.0232128798961639,-0.0109955742955207
1761235196770926000,4.448926025390625,0.0029016099870204,-0.0138971842825412,-0.0131336031481623
1761235196788959200,4.466959228515625,-0.0032070425804704,-0.0004581489483825,0.0039706239476799
1761235196807003000,4.4850029296875,0.00335975876078,0.0032070425804704,-0.0012217304902151
1761235196825037300,4.503037353515625,0.0091629782691597,0.0019853119738399,0.0010690141934901
1761235196843063800,4.521063720703125,0.0047342055477201,-0.0038179077673703,0.0
1761235196861105000,4.53910498046875,0.0035124751739203,-0.0001527163112768,-0.0032070425804704
1761235196879149800,4.55714990234375,0.00335975876078,0.0152716310694813,-0.0010690141934901
1761235196897187300,4.575187255859375,0.0021380283869802,0.0145080499351024,0.0096211275085806
1761235196915225900,4.593225830078125,0.0006108652451075,-0.0019853119738399,0.0108428578823804
1761235196933262600,4.6112626953125,-0.00137444678694,-0.0152716310694813,0.0039706239476799
1761235196951299600,4.629299560546875,-0.0039706239476799,-0.0360410511493682,-0.0025961773935705
1761235196969337600,4.647337646484375,0.0,-0.0439822971820831,-0.0148134818300604
1761235196987375900,4.6653759765625,0.0065668015740811,-0.0453567430377006,-0.0061086523346602
1761235197005412400,4.683412353515625,0.0087048299610614,-0.0317649915814399,0.0029016099870204
1761235197023449900,4.701449951171875,0.0025961773935705,-0.0209221355617046,-0.0007635815418325
1761235197041487000,4.719487060546875,-0.0018325957935303,-0.0145080499351024,-0.00167987938039
1761235197059526100,4.737526123046875,0.0021380283869802,-0.0113010071218013,-0.0022907445672899
1761235197077562400,4.755562255859375,0.0062613687478005,-0.0183259565383195,-0.0074830991216003
1761235197095601000,4.773600830078125,0.0042760567739605,-0.0226020142436027,-0.0203112699091434
1761235197113636600,4.79163671875,0.0006108652451075,-0.0100792767480015,0.0030543261673301
1761235197131675600,4.809675537109375,0.0021380283869802,0.0004581489483825,-0.0058032199740409
1761235197149712100,4.827712158203125,0.005192354787141,-0.0032070425804704,-0.0062613687478005
1761235197167749600,4.84574951171875,0.0125227374956011,-0.0296269636601209,-0.0152716310694813
1761235197185786000,4.8637861328125,0.0103847095742821,-0.0302378293126821,-0.0177150927484035
1761235197203827200,4.8818271484375,-0.0003054326225537,-0.007177666760981,0.0062613687478005
1761235197221862700,4.899862548828125,-0.0050396383740007,0.0134390350431203,0.0094684110954403
1761235197239900000,4.91789990234375,-0.0074830991216003,0.0100792767480015,0.0114537235349416
1761235197257937400,4.9359375,-0.00335975876078,-0.0065668015740811,0.0032070425804704
1761235197275976200,4.95397607421875,-0.00167987938039,-0.001527163083665,0.0012217304902151
1761235197294011100,4.97201123046875,-0.00137444678694,0.0042760567739605,-0.0059559359215199
1761235197312051700,4.9900517578125,-0.0088575463742017,0.0099265603348612,-0.0058032199740409
1761235197330087400,5.00808740234375,-0.01328631862998,0.0233655963093042,-0.0004581489483825
1761235197348118500,5.026118408203125,-0.0056505035609006,0.0216857157647609,0.0038179077673703
1761235197366152700,5.044152587890625,-0.0036651915870606,0.0221438650041818,-0.001527163083665
